{"_id":{"$oid":"5cf43e3e8990a00004c6d523"},"data":[{"participantID":"sfmcx2twvmsm0d9qpnq19vpmrd27oqtr","judgmentIndices":[0,1,3,2],"questionScores":[null,null,null,null,null,null,null,null,null,null],"questionIndices":[18,24,30,2,33,8,17,13,46,37],"responseType":"finish","internal_node_id":"0.0-0.0","time_elapsed":6925,"trial_index":0,"trial_type":"survey-multi-choice","responses":"{\"Q0\":\"I consent to participate\"}","rt":6912},{"participantID":"sfmcx2twvmsm0d9qpnq19vpmrd27oqtr","judgmentIndices":[0,1,3,2],"questionScores":[null,null,null,null,null,null,null,null,null,null],"questionIndices":[18,24,30,2,33,8,17,13,46,37],"responseType":"finish","internal_node_id":"0.0-1.0","time_elapsed":13645,"trial_index":1,"trial_type":"instructions","rt":5718,"view_history":"[{\"page_index\":0,\"viewing_time\":5717}]"},{"participantID":"sfmcx2twvmsm0d9qpnq19vpmrd27oqtr","judgmentIndices":[0,1,3,2],"questionScores":[null,null,null,null,null,null,null,null,null,null],"questionIndices":[18,24,30,2,33,8,17,13,46,37],"responseType":"finish","internal_node_id":"0.0-2.0-0.0","time_elapsed":43559,"trial_index":2,"trial_type":"survey-likert","responses":"{\"Q0\":\"4\",\"Q1\":\"0\",\"Q2\":\"0\",\"Q3\":\"0\"}","rt":28903},{"participantID":"sfmcx2twvmsm0d9qpnq19vpmrd27oqtr","judgmentIndices":[0,1,3,2],"questionScores":[null,null,null,null,null,null,null,null,null,null],"questionIndices":[18,24,30,2,33,8,17,13,46,37],"responseType":"finish","internal_node_id":"0.0-2.0-1.0","time_elapsed":73308,"trial_index":3,"trial_type":"survey-likert","responses":"{\"Q0\":\"3\",\"Q1\":\"2\",\"Q2\":\"0\",\"Q3\":\"0\"}","rt":28740},{"participantID":"sfmcx2twvmsm0d9qpnq19vpmrd27oqtr","judgmentIndices":[0,1,3,2],"questionScores":[null,null,null,null,null,null,null,null,null,null],"questionIndices":[18,24,30,2,33,8,17,13,46,37],"responseType":"finish","internal_node_id":"0.0-2.0-2.0","time_elapsed":95941,"trial_index":4,"trial_type":"survey-likert","responses":"{\"Q0\":\"2\",\"Q1\":\"4\",\"Q2\":\"1\",\"Q3\":\"1\"}","rt":21624},{"participantID":"sfmcx2twvmsm0d9qpnq19vpmrd27oqtr","judgmentIndices":[0,1,3,2],"questionScores":[null,null,null,null,null,null,null,null,null,null],"questionIndices":[18,24,30,2,33,8,17,13,46,37],"responseType":"finish","internal_node_id":"0.0-2.0-3.0","time_elapsed":124882,"trial_index":5,"trial_type":"survey-likert","responses":"{\"Q0\":\"2\",\"Q1\":\"5\",\"Q2\":\"1\",\"Q3\":\"0\"}","rt":27933},{"participantID":"sfmcx2twvmsm0d9qpnq19vpmrd27oqtr","judgmentIndices":[0,1,3,2],"questionScores":[null,null,null,null,null,null,null,null,null,null],"questionIndices":[18,24,30,2,33,8,17,13,46,37],"responseType":"finish","internal_node_id":"0.0-2.0-4.0","time_elapsed":145773,"trial_index":6,"trial_type":"survey-likert","responses":"{\"Q0\":\"0\",\"Q1\":\"6\",\"Q2\":\"3\",\"Q3\":\"3\"}","rt":19884},{"participantID":"sfmcx2twvmsm0d9qpnq19vpmrd27oqtr","judgmentIndices":[0,1,3,2],"questionScores":[null,null,null,null,null,null,null,null,null,null],"questionIndices":[18,24,30,2,33,8,17,13,46,37],"responseType":"finish","internal_node_id":"0.0-3.0","time_elapsed":170526,"trial_index":7,"trial_type":"survey-likert","responses":"{\"Q0\":\"6\",\"Q1\":\"0\",\"Q2\":\"3\",\"Q3\":\"3\",\"Q4\":\"6\"}","rt":23742},{"participantID":"sfmcx2twvmsm0d9qpnq19vpmrd27oqtr","judgmentIndices":[0,1,3,2],"questionScores":[null,null,null,null,null,null,null,null,null,null],"questionIndices":[18,24,30,2,33,8,17,13,46,37],"responseType":"finish","internal_node_id":"0.0-4.0-0.0","time_elapsed":186507,"trial_index":8,"trial_type":"survey-likert","responses":"{\"Q0\":\"0\",\"Q1\":\"6\",\"Q2\":\"4\",\"Q3\":\"6\"}","rt":14974},{"participantID":"sfmcx2twvmsm0d9qpnq19vpmrd27oqtr","judgmentIndices":[0,1,3,2],"questionScores":[null,null,null,null,null,null,null,null,null,null],"questionIndices":[18,24,30,2,33,8,17,13,46,37],"responseType":"finish","internal_node_id":"0.0-4.0-1.0","time_elapsed":207421,"trial_index":9,"trial_type":"survey-likert","responses":"{\"Q0\":\"3\",\"Q1\":\"3\",\"Q2\":\"0\",\"Q3\":\"0\"}","rt":19909},{"participantID":"sfmcx2twvmsm0d9qpnq19vpmrd27oqtr","judgmentIndices":[0,1,3,2],"questionScores":[null,null,null,null,null,null,null,null,null,null],"questionIndices":[18,24,30,2,33,8,17,13,46,37],"responseType":"finish","internal_node_id":"0.0-4.0-2.0","time_elapsed":223269,"trial_index":10,"trial_type":"survey-likert","responses":"{\"Q0\":\"6\",\"Q1\":\"2\",\"Q2\":\"3\",\"Q3\":\"3\"}","rt":14841},{"participantID":"sfmcx2twvmsm0d9qpnq19vpmrd27oqtr","judgmentIndices":[0,1,3,2],"questionScores":[null,null,null,null,null,null,null,null,null,null],"questionIndices":[18,24,30,2,33,8,17,13,46,37],"responseType":"finish","internal_node_id":"0.0-4.0-3.0","time_elapsed":241180,"trial_index":11,"trial_type":"survey-likert","responses":"{\"Q0\":\"0\",\"Q1\":\"6\",\"Q2\":\"3\",\"Q3\":\"6\"}","rt":16902}],"__v":0}
{"_id":{"$oid":"5cf43e568990a00004c6d524"},"data":[{"participantID":"qrw87p430tabkol0mxj9q3dkm1p4o423","judgmentIndices":[0,3,1,2],"questionScores":[null,null,null,null,null,null,null,null,null,null],"questionIndices":[5,29,0,2,38,28,35,19,25,23],"responseType":"finish","internal_node_id":"0.0-0.0","time_elapsed":7960,"trial_index":0,"trial_type":"survey-multi-choice","responses":"{\"Q0\":\"I consent to participate\"}","rt":7951},{"participantID":"qrw87p430tabkol0mxj9q3dkm1p4o423","judgmentIndices":[0,3,1,2],"questionScores":[null,null,null,null,null,null,null,null,null,null],"questionIndices":[5,29,0,2,38,28,35,19,25,23],"responseType":"finish","internal_node_id":"0.0-1.0","time_elapsed":12239,"trial_index":1,"trial_type":"instructions","rt":3278,"view_history":"[{\"page_index\":0,\"viewing_time\":3277}]"},{"participantID":"qrw87p430tabkol0mxj9q3dkm1p4o423","judgmentIndices":[0,3,1,2],"questionScores":[null,null,null,null,null,null,null,null,null,null],"questionIndices":[5,29,0,2,38,28,35,19,25,23],"responseType":"finish","internal_node_id":"0.0-2.0-0.0","time_elapsed":27324,"trial_index":2,"trial_type":"survey-likert","responses":"{\"Q0\":\"5\",\"Q1\":\"2\",\"Q2\":\"1\",\"Q3\":\"4\"}","rt":14080},{"participantID":"qrw87p430tabkol0mxj9q3dkm1p4o423","judgmentIndices":[0,3,1,2],"questionScores":[null,null,null,null,null,null,null,null,null,null],"questionIndices":[5,29,0,2,38,28,35,19,25,23],"responseType":"finish","internal_node_id":"0.0-2.0-1.0","time_elapsed":43151,"trial_index":3,"trial_type":"survey-likert","responses":"{\"Q0\":\"5\",\"Q1\":\"1\",\"Q2\":\"3\",\"Q3\":\"5\"}","rt":14824},{"participantID":"qrw87p430tabkol0mxj9q3dkm1p4o423","judgmentIndices":[0,3,1,2],"questionScores":[null,null,null,null,null,null,null,null,null,null],"questionIndices":[5,29,0,2,38,28,35,19,25,23],"responseType":"finish","internal_node_id":"0.0-2.0-2.0","time_elapsed":56287,"trial_index":4,"trial_type":"survey-likert","responses":"{\"Q0\":\"3\",\"Q1\":\"1\",\"Q2\":\"1\",\"Q3\":\"4\"}","rt":12134},{"participantID":"qrw87p430tabkol0mxj9q3dkm1p4o423","judgmentIndices":[0,3,1,2],"questionScores":[null,null,null,null,null,null,null,null,null,null],"questionIndices":[5,29,0,2,38,28,35,19,25,23],"responseType":"finish","internal_node_id":"0.0-2.0-3.0","time_elapsed":74719,"trial_index":5,"trial_type":"survey-likert","responses":"{\"Q0\":\"5\",\"Q1\":\"3\",\"Q2\":\"1\",\"Q3\":\"5\"}","rt":17429},{"participantID":"qrw87p430tabkol0mxj9q3dkm1p4o423","judgmentIndices":[0,3,1,2],"questionScores":[null,null,null,null,null,null,null,null,null,null],"questionIndices":[5,29,0,2,38,28,35,19,25,23],"responseType":"finish","internal_node_id":"0.0-2.0-4.0","time_elapsed":87715,"trial_index":6,"trial_type":"survey-likert","responses":"{\"Q0\":\"4\",\"Q1\":\"0\",\"Q2\":\"0\",\"Q3\":\"3\"}","rt":11993},{"participantID":"qrw87p430tabkol0mxj9q3dkm1p4o423","judgmentIndices":[0,3,1,2],"questionScores":[null,null,null,null,null,null,null,null,null,null],"questionIndices":[5,29,0,2,38,28,35,19,25,23],"responseType":"finish","internal_node_id":"0.0-3.0","time_elapsed":104111,"trial_index":7,"trial_type":"survey-likert","responses":"{\"Q0\":\"3\",\"Q1\":\"0\",\"Q2\":\"0\",\"Q3\":\"1\",\"Q4\":\"6\"}","rt":15394},{"participantID":"qrw87p430tabkol0mxj9q3dkm1p4o423","judgmentIndices":[0,3,1,2],"questionScores":[null,null,null,null,null,null,null,null,null,null],"questionIndices":[5,29,0,2,38,28,35,19,25,23],"responseType":"finish","internal_node_id":"0.0-4.0-0.0","time_elapsed":122931,"trial_index":8,"trial_type":"survey-likert","responses":"{\"Q0\":\"1\",\"Q1\":\"0\",\"Q2\":\"5\",\"Q3\":\"0\"}","rt":17817},{"participantID":"qrw87p430tabkol0mxj9q3dkm1p4o423","judgmentIndices":[0,3,1,2],"questionScores":[null,null,null,null,null,null,null,null,null,null],"questionIndices":[5,29,0,2,38,28,35,19,25,23],"responseType":"finish","internal_node_id":"0.0-4.0-1.0","time_elapsed":134731,"trial_index":9,"trial_type":"survey-likert","responses":"{\"Q0\":\"5\",\"Q1\":\"1\",\"Q2\":\"1\",\"Q3\":\"5\"}","rt":10796},{"participantID":"qrw87p430tabkol0mxj9q3dkm1p4o423","judgmentIndices":[0,3,1,2],"questionScores":[null,null,null,null,null,null,null,null,null,null],"questionIndices":[5,29,0,2,38,28,35,19,25,23],"responseType":"finish","internal_node_id":"0.0-4.0-2.0","time_elapsed":148155,"trial_index":10,"trial_type":"survey-likert","responses":"{\"Q0\":\"4\",\"Q1\":\"1\",\"Q2\":\"4\",\"Q3\":\"5\"}","rt":12421},{"participantID":"qrw87p430tabkol0mxj9q3dkm1p4o423","judgmentIndices":[0,3,1,2],"questionScores":[null,null,null,null,null,null,null,null,null,null],"questionIndices":[5,29,0,2,38,28,35,19,25,23],"responseType":"finish","internal_node_id":"0.0-4.0-3.0","time_elapsed":171375,"trial_index":11,"trial_type":"survey-likert","responses":"{\"Q0\":\"4\",\"Q1\":\"1\",\"Q2\":\"1\",\"Q3\":\"3\"}","rt":22217}],"__v":0}
{"_id":{"$oid":"5cf43e918990a00004c6d525"},"data":[{"participantID":"2yfjc32hqne6avf0a6kaxbhftw6ydo47","judgmentIndices":[1,2,0,3],"questionScores":[null,null,null,null,null,null,null,null,null,null],"questionIndices":[26,30,46,39,44,2,27,10,29,41],"responseType":"finish","internal_node_id":"0.0-0.0","time_elapsed":115638,"trial_index":0,"trial_type":"survey-multi-choice","responses":"{\"Q0\":\"I consent to participate\"}","rt":115588},{"participantID":"2yfjc32hqne6avf0a6kaxbhftw6ydo47","judgmentIndices":[1,2,0,3],"questionScores":[null,null,null,null,null,null,null,null,null,null],"questionIndices":[26,30,46,39,44,2,27,10,29,41],"responseType":"finish","internal_node_id":"0.0-1.0","time_elapsed":117544,"trial_index":1,"trial_type":"instructions","rt":901,"view_history":"[{\"page_index\":0,\"viewing_time\":899}]"},{"participantID":"2yfjc32hqne6avf0a6kaxbhftw6ydo47","judgmentIndices":[1,2,0,3],"questionScores":[null,null,null,null,null,null,null,null,null,null],"questionIndices":[26,30,46,39,44,2,27,10,29,41],"responseType":"finish","internal_node_id":"0.0-2.0-0.0","time_elapsed":127778,"trial_index":2,"trial_type":"survey-likert","responses":"{\"Q0\":\"1\",\"Q1\":\"0\",\"Q2\":\"0\",\"Q3\":\"1\"}","rt":9204},{"participantID":"2yfjc32hqne6avf0a6kaxbhftw6ydo47","judgmentIndices":[1,2,0,3],"questionScores":[null,null,null,null,null,null,null,null,null,null],"questionIndices":[26,30,46,39,44,2,27,10,29,41],"responseType":"finish","internal_node_id":"0.0-2.0-1.0","time_elapsed":135090,"trial_index":3,"trial_type":"survey-likert","responses":"{\"Q0\":\"3\",\"Q1\":\"1\",\"Q2\":\"2\",\"Q3\":\"2\"}","rt":6288},{"participantID":"2yfjc32hqne6avf0a6kaxbhftw6ydo47","judgmentIndices":[1,2,0,3],"questionScores":[null,null,null,null,null,null,null,null,null,null],"questionIndices":[26,30,46,39,44,2,27,10,29,41],"responseType":"finish","internal_node_id":"0.0-2.0-2.0","time_elapsed":144182,"trial_index":4,"trial_type":"survey-likert","responses":"{\"Q0\":\"0\",\"Q1\":\"1\",\"Q2\":\"0\",\"Q3\":\"0\"}","rt":8070},{"participantID":"2yfjc32hqne6avf0a6kaxbhftw6ydo47","judgmentIndices":[1,2,0,3],"questionScores":[null,null,null,null,null,null,null,null,null,null],"questionIndices":[26,30,46,39,44,2,27,10,29,41],"responseType":"finish","internal_node_id":"0.0-2.0-3.0","time_elapsed":156822,"trial_index":5,"trial_type":"survey-likert","responses":"{\"Q0\":\"2\",\"Q1\":\"0\",\"Q2\":\"0\",\"Q3\":\"0\"}","rt":11619},{"participantID":"2yfjc32hqne6avf0a6kaxbhftw6ydo47","judgmentIndices":[1,2,0,3],"questionScores":[null,null,null,null,null,null,null,null,null,null],"questionIndices":[26,30,46,39,44,2,27,10,29,41],"responseType":"finish","internal_node_id":"0.0-2.0-4.0","time_elapsed":165656,"trial_index":6,"trial_type":"survey-likert","responses":"{\"Q0\":\"3\",\"Q1\":\"1\",\"Q2\":\"3\",\"Q3\":\"4\"}","rt":7807},{"participantID":"2yfjc32hqne6avf0a6kaxbhftw6ydo47","judgmentIndices":[1,2,0,3],"questionScores":[null,null,null,null,null,null,null,null,null,null],"questionIndices":[26,30,46,39,44,2,27,10,29,41],"responseType":"finish","internal_node_id":"0.0-3.0","time_elapsed":178334,"trial_index":7,"trial_type":"survey-likert","responses":"{\"Q0\":\"0\",\"Q1\":\"0\",\"Q2\":\"0\",\"Q3\":\"0\",\"Q4\":\"0\"}","rt":11652},{"participantID":"2yfjc32hqne6avf0a6kaxbhftw6ydo47","judgmentIndices":[1,2,0,3],"questionScores":[null,null,null,null,null,null,null,null,null,null],"questionIndices":[26,30,46,39,44,2,27,10,29,41],"responseType":"finish","internal_node_id":"0.0-4.0-0.0","time_elapsed":188266,"trial_index":8,"trial_type":"survey-likert","responses":"{\"Q0\":\"3\",\"Q1\":\"4\",\"Q2\":\"3\",\"Q3\":\"4\"}","rt":8908},{"participantID":"2yfjc32hqne6avf0a6kaxbhftw6ydo47","judgmentIndices":[1,2,0,3],"questionScores":[null,null,null,null,null,null,null,null,null,null],"questionIndices":[26,30,46,39,44,2,27,10,29,41],"responseType":"finish","internal_node_id":"0.0-4.0-1.0","time_elapsed":195510,"trial_index":9,"trial_type":"survey-likert","responses":"{\"Q0\":\"4\",\"Q1\":\"1\",\"Q2\":\"2\",\"Q3\":\"1\"}","rt":6219},{"participantID":"2yfjc32hqne6avf0a6kaxbhftw6ydo47","judgmentIndices":[1,2,0,3],"questionScores":[null,null,null,null,null,null,null,null,null,null],"questionIndices":[26,30,46,39,44,2,27,10,29,41],"responseType":"finish","internal_node_id":"0.0-4.0-2.0","time_elapsed":202654,"trial_index":10,"trial_type":"survey-likert","responses":"{\"Q0\":\"3\",\"Q1\":\"4\",\"Q2\":\"4\",\"Q3\":\"4\"}","rt":6121},{"participantID":"2yfjc32hqne6avf0a6kaxbhftw6ydo47","judgmentIndices":[1,2,0,3],"questionScores":[null,null,null,null,null,null,null,null,null,null],"questionIndices":[26,30,46,39,44,2,27,10,29,41],"responseType":"finish","internal_node_id":"0.0-4.0-3.0","time_elapsed":242866,"trial_index":11,"trial_type":"survey-likert","responses":"{\"Q0\":\"0\",\"Q1\":\"0\",\"Q2\":\"0\",\"Q3\":\"0\"}","rt":39184}],"__v":0}
{"_id":{"$oid":"5cf43fb08990a00004c6d526"},"data":[{"participantID":"076dogp6qxwgm1aqfmdryebkh30e4w9m","judgmentIndices":[1,2,3,0],"questionScores":[null,null,null,null,null,null,null,null,null,null],"questionIndices":[20,25,17,21,1,41,48,11,4,40],"responseType":"finish","internal_node_id":"0.0-0.0","time_elapsed":7500,"trial_index":0,"trial_type":"survey-multi-choice","responses":"{\"Q0\":\"I consent to participate\"}","rt":7430},{"participantID":"076dogp6qxwgm1aqfmdryebkh30e4w9m","judgmentIndices":[1,2,3,0],"questionScores":[null,null,null,null,null,null,null,null,null,null],"questionIndices":[20,25,17,21,1,41,48,11,4,40],"responseType":"finish","internal_node_id":"0.0-1.0","time_elapsed":14318,"trial_index":1,"trial_type":"instructions","rt":5811,"view_history":"[{\"page_index\":0,\"viewing_time\":5807}]"},{"participantID":"076dogp6qxwgm1aqfmdryebkh30e4w9m","judgmentIndices":[1,2,3,0],"questionScores":[null,null,null,null,null,null,null,null,null,null],"questionIndices":[20,25,17,21,1,41,48,11,4,40],"responseType":"finish","internal_node_id":"0.0-2.0-0.0","time_elapsed":33207,"trial_index":2,"trial_type":"survey-likert","responses":"{\"Q0\":\"0\",\"Q1\":\"1\",\"Q2\":\"1\",\"Q3\":\"3\"}","rt":17872},{"participantID":"076dogp6qxwgm1aqfmdryebkh30e4w9m","judgmentIndices":[1,2,3,0],"questionScores":[null,null,null,null,null,null,null,null,null,null],"questionIndices":[20,25,17,21,1,41,48,11,4,40],"responseType":"finish","internal_node_id":"0.0-2.0-1.0","time_elapsed":50830,"trial_index":3,"trial_type":"survey-likert","responses":"{\"Q0\":\"1\",\"Q1\":\"0\",\"Q2\":\"3\",\"Q3\":\"1\"}","rt":16587},{"participantID":"076dogp6qxwgm1aqfmdryebkh30e4w9m","judgmentIndices":[1,2,3,0],"questionScores":[null,null,null,null,null,null,null,null,null,null],"questionIndices":[20,25,17,21,1,41,48,11,4,40],"responseType":"finish","internal_node_id":"0.0-2.0-2.0","time_elapsed":68262,"trial_index":4,"trial_type":"survey-likert","responses":"{\"Q0\":\"2\",\"Q1\":\"4\",\"Q2\":\"3\",\"Q3\":\"4\"}","rt":16412},{"participantID":"076dogp6qxwgm1aqfmdryebkh30e4w9m","judgmentIndices":[1,2,3,0],"questionScores":[null,null,null,null,null,null,null,null,null,null],"questionIndices":[20,25,17,21,1,41,48,11,4,40],"responseType":"finish","internal_node_id":"0.0-2.0-3.0","time_elapsed":123921,"trial_index":5,"trial_type":"survey-likert","responses":"{\"Q0\":\"0\",\"Q1\":\"1\",\"Q2\":\"0\",\"Q3\":\"3\"}","rt":54644},{"participantID":"076dogp6qxwgm1aqfmdryebkh30e4w9m","judgmentIndices":[1,2,3,0],"questionScores":[null,null,null,null,null,null,null,null,null,null],"questionIndices":[20,25,17,21,1,41,48,11,4,40],"responseType":"finish","internal_node_id":"0.0-2.0-4.0","time_elapsed":137055,"trial_index":6,"trial_type":"survey-likert","responses":"{\"Q0\":\"0\",\"Q1\":\"0\",\"Q2\":\"0\",\"Q3\":\"0\"}","rt":11062},{"participantID":"076dogp6qxwgm1aqfmdryebkh30e4w9m","judgmentIndices":[1,2,3,0],"questionScores":[null,null,null,null,null,null,null,null,null,null],"questionIndices":[20,25,17,21,1,41,48,11,4,40],"responseType":"finish","internal_node_id":"0.0-3.0","time_elapsed":169225,"trial_index":7,"trial_type":"survey-likert","responses":"{\"Q0\":\"0\",\"Q1\":\"3\",\"Q2\":\"3\",\"Q3\":\"1\",\"Q4\":\"6\"}","rt":31136},{"participantID":"076dogp6qxwgm1aqfmdryebkh30e4w9m","judgmentIndices":[1,2,3,0],"questionScores":[null,null,null,null,null,null,null,null,null,null],"questionIndices":[20,25,17,21,1,41,48,11,4,40],"responseType":"finish","internal_node_id":"0.0-4.0-0.0","time_elapsed":215256,"trial_index":8,"trial_type":"survey-likert","responses":"{\"Q0\":\"0\",\"Q1\":\"0\",\"Q2\":\"0\",\"Q3\":\"0\"}","rt":45003},{"participantID":"076dogp6qxwgm1aqfmdryebkh30e4w9m","judgmentIndices":[1,2,3,0],"questionScores":[null,null,null,null,null,null,null,null,null,null],"questionIndices":[20,25,17,21,1,41,48,11,4,40],"responseType":"finish","internal_node_id":"0.0-4.0-1.0","time_elapsed":238863,"trial_index":9,"trial_type":"survey-likert","responses":"{\"Q0\":\"0\",\"Q1\":\"0\",\"Q2\":\"0\",\"Q3\":\"0\"}","rt":22592},{"participantID":"076dogp6qxwgm1aqfmdryebkh30e4w9m","judgmentIndices":[1,2,3,0],"questionScores":[null,null,null,null,null,null,null,null,null,null],"questionIndices":[20,25,17,21,1,41,48,11,4,40],"responseType":"finish","internal_node_id":"0.0-4.0-2.0","time_elapsed":252032,"trial_index":10,"trial_type":"survey-likert","responses":"{\"Q0\":\"0\",\"Q1\":\"3\",\"Q2\":\"1\",\"Q3\":\"4\"}","rt":12134},{"participantID":"076dogp6qxwgm1aqfmdryebkh30e4w9m","judgmentIndices":[1,2,3,0],"questionScores":[null,null,null,null,null,null,null,null,null,null],"questionIndices":[20,25,17,21,1,41,48,11,4,40],"responseType":"finish","internal_node_id":"0.0-4.0-3.0","time_elapsed":263284,"trial_index":11,"trial_type":"survey-likert","responses":"{\"Q0\":\"0\",\"Q1\":\"0\",\"Q2\":\"0\",\"Q3\":\"0\"}","rt":10226}],"__v":0}
{"_id":{"$oid":"5cf43fd88990a00004c6d527"},"data":[{"participantID":"um8loq05sq31yj9f54c4rhxfhjsx7uac","judgmentIndices":[1,3,2,0],"questionScores":[null,null,null,null,null,null,null,null,null,null],"questionIndices":[38,3,23,16,13,1,40,18,8,27],"responseType":"finish","internal_node_id":"0.0-0.0","time_elapsed":25146,"trial_index":0,"trial_type":"survey-multi-choice","responses":"{\"Q0\":\"I consent to participate\"}","rt":25133},{"participantID":"um8loq05sq31yj9f54c4rhxfhjsx7uac","judgmentIndices":[1,3,2,0],"questionScores":[null,null,null,null,null,null,null,null,null,null],"questionIndices":[38,3,23,16,13,1,40,18,8,27],"responseType":"finish","internal_node_id":"0.0-1.0","time_elapsed":34581,"trial_index":1,"trial_type":"instructions","rt":8429,"view_history":"[{\"page_index\":0,\"viewing_time\":8428}]"},{"participantID":"um8loq05sq31yj9f54c4rhxfhjsx7uac","judgmentIndices":[1,3,2,0],"questionScores":[null,null,null,null,null,null,null,null,null,null],"questionIndices":[38,3,23,16,13,1,40,18,8,27],"responseType":"finish","internal_node_id":"0.0-2.0-0.0","time_elapsed":48881,"trial_index":2,"trial_type":"survey-likert","responses":"{\"Q0\":\"0\",\"Q1\":\"0\",\"Q2\":\"0\",\"Q3\":\"1\"}","rt":13285},{"participantID":"um8loq05sq31yj9f54c4rhxfhjsx7uac","judgmentIndices":[1,3,2,0],"questionScores":[null,null,null,null,null,null,null,null,null,null],"questionIndices":[38,3,23,16,13,1,40,18,8,27],"responseType":"finish","internal_node_id":"0.0-2.0-1.0","time_elapsed":59699,"trial_index":3,"trial_type":"survey-likert","responses":"{\"Q0\":\"4\",\"Q1\":\"1\",\"Q2\":\"1\",\"Q3\":\"1\"}","rt":9803},{"participantID":"um8loq05sq31yj9f54c4rhxfhjsx7uac","judgmentIndices":[1,3,2,0],"questionScores":[null,null,null,null,null,null,null,null,null,null],"questionIndices":[38,3,23,16,13,1,40,18,8,27],"responseType":"finish","internal_node_id":"0.0-2.0-2.0","time_elapsed":70968,"trial_index":4,"trial_type":"survey-likert","responses":"{\"Q0\":\"1\",\"Q1\":\"2\",\"Q2\":\"0\",\"Q3\":\"3\"}","rt":10254},{"participantID":"um8loq05sq31yj9f54c4rhxfhjsx7uac","judgmentIndices":[1,3,2,0],"questionScores":[null,null,null,null,null,null,null,null,null,null],"questionIndices":[38,3,23,16,13,1,40,18,8,27],"responseType":"finish","internal_node_id":"0.0-2.0-3.0","time_elapsed":79018,"trial_index":5,"trial_type":"survey-likert","responses":"{\"Q0\":\"1\",\"Q1\":\"1\",\"Q2\":\"0\",\"Q3\":\"4\"}","rt":7037},{"participantID":"um8loq05sq31yj9f54c4rhxfhjsx7uac","judgmentIndices":[1,3,2,0],"questionScores":[null,null,null,null,null,null,null,null,null,null],"questionIndices":[38,3,23,16,13,1,40,18,8,27],"responseType":"finish","internal_node_id":"0.0-2.0-4.0","time_elapsed":89368,"trial_index":6,"trial_type":"survey-likert","responses":"{\"Q0\":\"0\",\"Q1\":\"0\",\"Q2\":\"0\",\"Q3\":\"0\"}","rt":9337},{"participantID":"um8loq05sq31yj9f54c4rhxfhjsx7uac","judgmentIndices":[1,3,2,0],"questionScores":[null,null,null,null,null,null,null,null,null,null],"questionIndices":[38,3,23,16,13,1,40,18,8,27],"responseType":"finish","internal_node_id":"0.0-3.0","time_elapsed":102709,"trial_index":7,"trial_type":"survey-likert","responses":"{\"Q0\":\"1\",\"Q1\":\"0\",\"Q2\":\"0\",\"Q3\":\"0\",\"Q4\":\"6\"}","rt":12325},{"participantID":"um8loq05sq31yj9f54c4rhxfhjsx7uac","judgmentIndices":[1,3,2,0],"questionScores":[null,null,null,null,null,null,null,null,null,null],"questionIndices":[38,3,23,16,13,1,40,18,8,27],"responseType":"finish","internal_node_id":"0.0-4.0-0.0","time_elapsed":114290,"trial_index":8,"trial_type":"survey-likert","responses":"{\"Q0\":\"1\",\"Q1\":\"4\",\"Q2\":\"2\",\"Q3\":\"4\"}","rt":10568},{"participantID":"um8loq05sq31yj9f54c4rhxfhjsx7uac","judgmentIndices":[1,3,2,0],"questionScores":[null,null,null,null,null,null,null,null,null,null],"questionIndices":[38,3,23,16,13,1,40,18,8,27],"responseType":"finish","internal_node_id":"0.0-4.0-1.0","time_elapsed":126209,"trial_index":9,"trial_type":"survey-likert","responses":"{\"Q0\":\"1\",\"Q1\":\"1\",\"Q2\":\"3\",\"Q3\":\"5\"}","rt":10906},{"participantID":"um8loq05sq31yj9f54c4rhxfhjsx7uac","judgmentIndices":[1,3,2,0],"questionScores":[null,null,null,null,null,null,null,null,null,null],"questionIndices":[38,3,23,16,13,1,40,18,8,27],"responseType":"finish","internal_node_id":"0.0-4.0-2.0","time_elapsed":139600,"trial_index":10,"trial_type":"survey-likert","responses":"{\"Q0\":\"4\",\"Q1\":\"2\",\"Q2\":\"1\",\"Q3\":\"3\"}","rt":12380},{"participantID":"um8loq05sq31yj9f54c4rhxfhjsx7uac","judgmentIndices":[1,3,2,0],"questionScores":[null,null,null,null,null,null,null,null,null,null],"questionIndices":[38,3,23,16,13,1,40,18,8,27],"responseType":"finish","internal_node_id":"0.0-4.0-3.0","time_elapsed":148482,"trial_index":11,"trial_type":"survey-likert","responses":"{\"Q0\":\"3\",\"Q1\":\"2\",\"Q2\":\"2\",\"Q3\":\"3\"}","rt":7870}],"__v":0}
{"_id":{"$oid":"5cf443628990a00004c6d528"},"data":[{"participantID":"17csbkw14cx45mopc95rstv51v9mjx8p","judgmentIndices":[0,2,3,1],"questionScores":[null,null,null,null,null,null,null,null,null,null],"questionIndices":[20,7,17,32,19,28,42,6,0,10],"responseType":"finish","internal_node_id":"0.0-0.0","time_elapsed":12526,"trial_index":0,"trial_type":"survey-multi-choice","responses":"{\"Q0\":\"I consent to participate\"}","rt":12468},{"participantID":"17csbkw14cx45mopc95rstv51v9mjx8p","judgmentIndices":[0,2,3,1],"questionScores":[null,null,null,null,null,null,null,null,null,null],"questionIndices":[20,7,17,32,19,28,42,6,0,10],"responseType":"finish","internal_node_id":"0.0-1.0","time_elapsed":21268,"trial_index":1,"trial_type":"instructions","rt":7737,"view_history":"[{\"page_index\":0,\"viewing_time\":7733}]"},{"participantID":"17csbkw14cx45mopc95rstv51v9mjx8p","judgmentIndices":[0,2,3,1],"questionScores":[null,null,null,null,null,null,null,null,null,null],"questionIndices":[20,7,17,32,19,28,42,6,0,10],"responseType":"finish","internal_node_id":"0.0-2.0-0.0","time_elapsed":51147,"trial_index":2,"trial_type":"survey-likert","responses":"{\"Q0\":\"6\",\"Q1\":\"5\",\"Q2\":\"3\",\"Q3\":\"3\"}","rt":28855},{"participantID":"17csbkw14cx45mopc95rstv51v9mjx8p","judgmentIndices":[0,2,3,1],"questionScores":[null,null,null,null,null,null,null,null,null,null],"questionIndices":[20,7,17,32,19,28,42,6,0,10],"responseType":"finish","internal_node_id":"0.0-2.0-1.0","time_elapsed":68330,"trial_index":3,"trial_type":"survey-likert","responses":"{\"Q0\":\"3\",\"Q1\":\"2\",\"Q2\":\"2\",\"Q3\":\"3\"}","rt":16162},{"participantID":"17csbkw14cx45mopc95rstv51v9mjx8p","judgmentIndices":[0,2,3,1],"questionScores":[null,null,null,null,null,null,null,null,null,null],"questionIndices":[20,7,17,32,19,28,42,6,0,10],"responseType":"finish","internal_node_id":"0.0-2.0-2.0","time_elapsed":84263,"trial_index":4,"trial_type":"survey-likert","responses":"{\"Q0\":\"3\",\"Q1\":\"3\",\"Q2\":\"2\",\"Q3\":\"4\"}","rt":14916},{"participantID":"17csbkw14cx45mopc95rstv51v9mjx8p","judgmentIndices":[0,2,3,1],"questionScores":[null,null,null,null,null,null,null,null,null,null],"questionIndices":[20,7,17,32,19,28,42,6,0,10],"responseType":"finish","internal_node_id":"0.0-2.0-3.0","time_elapsed":107884,"trial_index":5,"trial_type":"survey-likert","responses":"{\"Q0\":\"1\",\"Q1\":\"1\",\"Q2\":\"2\",\"Q3\":\"1\"}","rt":22604},{"participantID":"17csbkw14cx45mopc95rstv51v9mjx8p","judgmentIndices":[0,2,3,1],"questionScores":[null,null,null,null,null,null,null,null,null,null],"questionIndices":[20,7,17,32,19,28,42,6,0,10],"responseType":"finish","internal_node_id":"0.0-2.0-4.0","time_elapsed":127883,"trial_index":6,"trial_type":"survey-likert","responses":"{\"Q0\":\"3\",\"Q1\":\"2\",\"Q2\":\"2\",\"Q3\":\"1\"}","rt":18982},{"participantID":"17csbkw14cx45mopc95rstv51v9mjx8p","judgmentIndices":[0,2,3,1],"questionScores":[null,null,null,null,null,null,null,null,null,null],"questionIndices":[20,7,17,32,19,28,42,6,0,10],"responseType":"finish","internal_node_id":"0.0-3.0","time_elapsed":150075,"trial_index":7,"trial_type":"survey-likert","responses":"{\"Q0\":\"0\",\"Q1\":\"1\",\"Q2\":\"1\",\"Q3\":\"0\",\"Q4\":\"6\"}","rt":21171},{"participantID":"17csbkw14cx45mopc95rstv51v9mjx8p","judgmentIndices":[0,2,3,1],"questionScores":[null,null,null,null,null,null,null,null,null,null],"questionIndices":[20,7,17,32,19,28,42,6,0,10],"responseType":"finish","internal_node_id":"0.0-4.0-0.0","time_elapsed":168970,"trial_index":8,"trial_type":"survey-likert","responses":"{\"Q0\":\"0\",\"Q1\":\"1\",\"Q2\":\"2\",\"Q3\":\"3\"}","rt":17879},{"participantID":"17csbkw14cx45mopc95rstv51v9mjx8p","judgmentIndices":[0,2,3,1],"questionScores":[null,null,null,null,null,null,null,null,null,null],"questionIndices":[20,7,17,32,19,28,42,6,0,10],"responseType":"finish","internal_node_id":"0.0-4.0-1.0","time_elapsed":183899,"trial_index":9,"trial_type":"survey-likert","responses":"{\"Q0\":\"3\",\"Q1\":\"3\",\"Q2\":\"3\",\"Q3\":\"4\"}","rt":13912},{"participantID":"17csbkw14cx45mopc95rstv51v9mjx8p","judgmentIndices":[0,2,3,1],"questionScores":[null,null,null,null,null,null,null,null,null,null],"questionIndices":[20,7,17,32,19,28,42,6,0,10],"responseType":"finish","internal_node_id":"0.0-4.0-2.0","time_elapsed":199205,"trial_index":10,"trial_type":"survey-likert","responses":"{\"Q0\":\"1\",\"Q1\":\"1\",\"Q2\":\"1\",\"Q3\":\"4\"}","rt":14291},{"participantID":"17csbkw14cx45mopc95rstv51v9mjx8p","judgmentIndices":[0,2,3,1],"questionScores":[null,null,null,null,null,null,null,null,null,null],"questionIndices":[20,7,17,32,19,28,42,6,0,10],"responseType":"finish","internal_node_id":"0.0-4.0-3.0","time_elapsed":214900,"trial_index":11,"trial_type":"survey-likert","responses":"{\"Q0\":\"0\",\"Q1\":\"0\",\"Q2\":\"0\",\"Q3\":\"2\"}","rt":14678}],"__v":0}
{"_id":{"$oid":"5cf44f800f468e00040c7469"},"data":[{"participantID":"4nx3fa5fy64gp9vnzl9t0d3fngcbu01t","judgmentIndices":[1,3,0,2],"questionScores":[null,null,null,null,null,null,null,null,null,null],"questionIndices":[42,26,1,5,45,0,46,47,34,11],"responseType":"finish","internal_node_id":"0.0-0.0","time_elapsed":62488,"trial_index":0,"trial_type":"survey-multi-choice","responses":"{\"Q0\":\"I consent to participate\"}","rt":62414},{"participantID":"4nx3fa5fy64gp9vnzl9t0d3fngcbu01t","judgmentIndices":[1,3,0,2],"questionScores":[null,null,null,null,null,null,null,null,null,null],"questionIndices":[42,26,1,5,45,0,46,47,34,11],"responseType":"finish","internal_node_id":"0.0-1.0","time_elapsed":77317,"trial_index":1,"trial_type":"instructions","rt":13824,"view_history":"[{\"page_index\":0,\"viewing_time\":13822}]"},{"participantID":"4nx3fa5fy64gp9vnzl9t0d3fngcbu01t","judgmentIndices":[1,3,0,2],"questionScores":[null,null,null,null,null,null,null,null,null,null],"questionIndices":[42,26,1,5,45,0,46,47,34,11],"responseType":"finish","internal_node_id":"0.0-2.0-0.0","time_elapsed":125495,"trial_index":2,"trial_type":"survey-likert","responses":"{\"Q0\":\"4\",\"Q1\":\"3\",\"Q2\":\"6\",\"Q3\":\"3\"}","rt":47145},{"participantID":"4nx3fa5fy64gp9vnzl9t0d3fngcbu01t","judgmentIndices":[1,3,0,2],"questionScores":[null,null,null,null,null,null,null,null,null,null],"questionIndices":[42,26,1,5,45,0,46,47,34,11],"responseType":"finish","internal_node_id":"0.0-2.0-1.0","time_elapsed":157704,"trial_index":3,"trial_type":"survey-likert","responses":"{\"Q0\":\"2\",\"Q1\":\"4\",\"Q2\":\"6\",\"Q3\":\"5\"}","rt":31189},{"participantID":"4nx3fa5fy64gp9vnzl9t0d3fngcbu01t","judgmentIndices":[1,3,0,2],"questionScores":[null,null,null,null,null,null,null,null,null,null],"questionIndices":[42,26,1,5,45,0,46,47,34,11],"responseType":"finish","internal_node_id":"0.0-2.0-2.0","time_elapsed":230551,"trial_index":4,"trial_type":"survey-likert","responses":"{\"Q0\":\"1\",\"Q1\":\"3\",\"Q2\":\"6\",\"Q3\":\"2\"}","rt":71828},{"participantID":"4nx3fa5fy64gp9vnzl9t0d3fngcbu01t","judgmentIndices":[1,3,0,2],"questionScores":[null,null,null,null,null,null,null,null,null,null],"questionIndices":[42,26,1,5,45,0,46,47,34,11],"responseType":"finish","internal_node_id":"0.0-2.0-3.0","time_elapsed":259272,"trial_index":5,"trial_type":"survey-likert","responses":"{\"Q0\":\"0\",\"Q1\":\"3\",\"Q2\":\"3\",\"Q3\":\"3\"}","rt":27704},{"participantID":"4nx3fa5fy64gp9vnzl9t0d3fngcbu01t","judgmentIndices":[1,3,0,2],"questionScores":[null,null,null,null,null,null,null,null,null,null],"questionIndices":[42,26,1,5,45,0,46,47,34,11],"responseType":"finish","internal_node_id":"0.0-2.0-4.0","time_elapsed":297126,"trial_index":6,"trial_type":"survey-likert","responses":"{\"Q0\":\"0\",\"Q1\":\"2\",\"Q2\":\"3\",\"Q3\":\"2\"}","rt":36843},{"participantID":"4nx3fa5fy64gp9vnzl9t0d3fngcbu01t","judgmentIndices":[1,3,0,2],"questionScores":[null,null,null,null,null,null,null,null,null,null],"questionIndices":[42,26,1,5,45,0,46,47,34,11],"responseType":"finish","internal_node_id":"0.0-3.0","time_elapsed":324726,"trial_index":7,"trial_type":"survey-likert","responses":"{\"Q0\":\"5\",\"Q1\":\"2\",\"Q2\":\"3\",\"Q3\":\"3\",\"Q4\":\"6\"}","rt":26586},{"participantID":"4nx3fa5fy64gp9vnzl9t0d3fngcbu01t","judgmentIndices":[1,3,0,2],"questionScores":[null,null,null,null,null,null,null,null,null,null],"questionIndices":[42,26,1,5,45,0,46,47,34,11],"responseType":"finish","internal_node_id":"0.0-4.0-0.0","time_elapsed":378965,"trial_index":8,"trial_type":"survey-likert","responses":"{\"Q0\":\"2\",\"Q1\":\"4\",\"Q2\":\"4\",\"Q3\":\"3\"}","rt":53233},{"participantID":"4nx3fa5fy64gp9vnzl9t0d3fngcbu01t","judgmentIndices":[1,3,0,2],"questionScores":[null,null,null,null,null,null,null,null,null,null],"questionIndices":[42,26,1,5,45,0,46,47,34,11],"responseType":"finish","internal_node_id":"0.0-4.0-1.0","time_elapsed":406542,"trial_index":9,"trial_type":"survey-likert","responses":"{\"Q0\":\"0\",\"Q1\":\"3\",\"Q2\":\"5\",\"Q3\":\"4\"}","rt":26562},{"participantID":"4nx3fa5fy64gp9vnzl9t0d3fngcbu01t","judgmentIndices":[1,3,0,2],"questionScores":[null,null,null,null,null,null,null,null,null,null],"questionIndices":[42,26,1,5,45,0,46,47,34,11],"responseType":"finish","internal_node_id":"0.0-4.0-2.0","time_elapsed":422222,"trial_index":10,"trial_type":"survey-likert","responses":"{\"Q0\":\"1\",\"Q1\":\"6\",\"Q2\":\"6\",\"Q3\":\"6\"}","rt":14672},{"participantID":"4nx3fa5fy64gp9vnzl9t0d3fngcbu01t","judgmentIndices":[1,3,0,2],"questionScores":[null,null,null,null,null,null,null,null,null,null],"questionIndices":[42,26,1,5,45,0,46,47,34,11],"responseType":"finish","internal_node_id":"0.0-4.0-3.0","time_elapsed":448855,"trial_index":11,"trial_type":"survey-likert","responses":"{\"Q0\":\"5\",\"Q1\":\"4\",\"Q2\":\"4\",\"Q3\":\"5\"}","rt":25618}],"__v":0}
{"_id":{"$oid":"5cf450530f468e00040c746a"},"data":[{"participantID":"1qqocjls7z85opy1c49d9lhw118st88y","judgmentIndices":[3,1,2,0],"questionScores":[null,null,null,null,null,null,null,null,null,null],"questionIndices":[21,28,24,12,34,26,16,45,17,46],"responseType":"finish","internal_node_id":"0.0-0.0","time_elapsed":3469,"trial_index":0,"trial_type":"survey-multi-choice","responses":"{\"Q0\":\"I consent to participate\"}","rt":3460},{"participantID":"1qqocjls7z85opy1c49d9lhw118st88y","judgmentIndices":[3,1,2,0],"questionScores":[null,null,null,null,null,null,null,null,null,null],"questionIndices":[21,28,24,12,34,26,16,45,17,46],"responseType":"finish","internal_node_id":"0.0-1.0","time_elapsed":9813,"trial_index":1,"trial_type":"instructions","rt":5342,"view_history":"[{\"page_index\":0,\"viewing_time\":5341}]"},{"participantID":"1qqocjls7z85opy1c49d9lhw118st88y","judgmentIndices":[3,1,2,0],"questionScores":[null,null,null,null,null,null,null,null,null,null],"questionIndices":[21,28,24,12,34,26,16,45,17,46],"responseType":"finish","internal_node_id":"0.0-2.0-0.0","time_elapsed":23486,"trial_index":2,"trial_type":"survey-likert","responses":"{\"Q0\":\"4\",\"Q1\":\"0\",\"Q2\":\"3\",\"Q3\":\"5\"}","rt":12669},{"participantID":"1qqocjls7z85opy1c49d9lhw118st88y","judgmentIndices":[3,1,2,0],"questionScores":[null,null,null,null,null,null,null,null,null,null],"questionIndices":[21,28,24,12,34,26,16,45,17,46],"responseType":"finish","internal_node_id":"0.0-2.0-1.0","time_elapsed":34197,"trial_index":3,"trial_type":"survey-likert","responses":"{\"Q0\":\"1\",\"Q1\":\"0\",\"Q2\":\"4\",\"Q3\":\"5\"}","rt":9707},{"participantID":"1qqocjls7z85opy1c49d9lhw118st88y","judgmentIndices":[3,1,2,0],"questionScores":[null,null,null,null,null,null,null,null,null,null],"questionIndices":[21,28,24,12,34,26,16,45,17,46],"responseType":"finish","internal_node_id":"0.0-2.0-2.0","time_elapsed":48548,"trial_index":4,"trial_type":"survey-likert","responses":"{\"Q0\":\"1\",\"Q1\":\"0\",\"Q2\":\"3\",\"Q3\":\"5\"}","rt":13348},{"participantID":"1qqocjls7z85opy1c49d9lhw118st88y","judgmentIndices":[3,1,2,0],"questionScores":[null,null,null,null,null,null,null,null,null,null],"questionIndices":[21,28,24,12,34,26,16,45,17,46],"responseType":"finish","internal_node_id":"0.0-2.0-3.0","time_elapsed":76988,"trial_index":5,"trial_type":"survey-likert","responses":"{\"Q0\":\"4\",\"Q1\":\"0\",\"Q2\":\"5\",\"Q3\":\"6\"}","rt":27436},{"participantID":"1qqocjls7z85opy1c49d9lhw118st88y","judgmentIndices":[3,1,2,0],"questionScores":[null,null,null,null,null,null,null,null,null,null],"questionIndices":[21,28,24,12,34,26,16,45,17,46],"responseType":"finish","internal_node_id":"0.0-2.0-4.0","time_elapsed":106780,"trial_index":6,"trial_type":"survey-likert","responses":"{\"Q0\":\"3\",\"Q1\":\"0\",\"Q2\":\"3\",\"Q3\":\"3\"}","rt":28788},{"participantID":"1qqocjls7z85opy1c49d9lhw118st88y","judgmentIndices":[3,1,2,0],"questionScores":[null,null,null,null,null,null,null,null,null,null],"questionIndices":[21,28,24,12,34,26,16,45,17,46],"responseType":"finish","internal_node_id":"0.0-3.0","time_elapsed":126206,"trial_index":7,"trial_type":"survey-likert","responses":"{\"Q0\":\"4\",\"Q1\":\"3\",\"Q2\":\"3\",\"Q3\":\"5\",\"Q4\":\"6\"}","rt":18421},{"participantID":"1qqocjls7z85opy1c49d9lhw118st88y","judgmentIndices":[3,1,2,0],"questionScores":[null,null,null,null,null,null,null,null,null,null],"questionIndices":[21,28,24,12,34,26,16,45,17,46],"responseType":"finish","internal_node_id":"0.0-4.0-0.0","time_elapsed":135645,"trial_index":8,"trial_type":"survey-likert","responses":"{\"Q0\":\"1\",\"Q1\":\"0\",\"Q2\":\"3\",\"Q3\":\"3\"}","rt":8435},{"participantID":"1qqocjls7z85opy1c49d9lhw118st88y","judgmentIndices":[3,1,2,0],"questionScores":[null,null,null,null,null,null,null,null,null,null],"questionIndices":[21,28,24,12,34,26,16,45,17,46],"responseType":"finish","internal_node_id":"0.0-4.0-1.0","time_elapsed":146068,"trial_index":9,"trial_type":"survey-likert","responses":"{\"Q0\":\"2\",\"Q1\":\"3\",\"Q2\":\"3\",\"Q3\":\"3\"}","rt":9420},{"participantID":"1qqocjls7z85opy1c49d9lhw118st88y","judgmentIndices":[3,1,2,0],"questionScores":[null,null,null,null,null,null,null,null,null,null],"questionIndices":[21,28,24,12,34,26,16,45,17,46],"responseType":"finish","internal_node_id":"0.0-4.0-2.0","time_elapsed":159396,"trial_index":10,"trial_type":"survey-likert","responses":"{\"Q0\":\"4\",\"Q1\":\"2\",\"Q2\":\"4\",\"Q3\":\"4\"}","rt":12323},{"participantID":"1qqocjls7z85opy1c49d9lhw118st88y","judgmentIndices":[3,1,2,0],"questionScores":[null,null,null,null,null,null,null,null,null,null],"questionIndices":[21,28,24,12,34,26,16,45,17,46],"responseType":"finish","internal_node_id":"0.0-4.0-3.0","time_elapsed":167940,"trial_index":11,"trial_type":"survey-likert","responses":"{\"Q0\":\"2\",\"Q1\":\"3\",\"Q2\":\"3\",\"Q3\":\"3\"}","rt":7541}],"__v":0}
{"_id":{"$oid":"5cf45c43e63a58000419ea84"},"data":[{"participantID":"6zrjja7t4bew8vaxabcu9ycw0c5mpbeo","judgmentIndices":[2,3,0,1],"questionScores":[null,null,null,null,null,null,null,null,null,null],"questionIndices":[48,25,9,24,30,15,22,11,10,12],"responseType":"finish","internal_node_id":"0.0-0.0","time_elapsed":17217,"trial_index":0,"trial_type":"survey-multi-choice","responses":"{\"Q0\":\"I consent to participate\"}","rt":17206},{"participantID":"6zrjja7t4bew8vaxabcu9ycw0c5mpbeo","judgmentIndices":[2,3,0,1],"questionScores":[null,null,null,null,null,null,null,null,null,null],"questionIndices":[48,25,9,24,30,15,22,11,10,12],"responseType":"finish","internal_node_id":"0.0-1.0","time_elapsed":28625,"trial_index":1,"trial_type":"instructions","rt":10406,"view_history":"[{\"page_index\":0,\"viewing_time\":10405}]"},{"participantID":"6zrjja7t4bew8vaxabcu9ycw0c5mpbeo","judgmentIndices":[2,3,0,1],"questionScores":[null,null,null,null,null,null,null,null,null,null],"questionIndices":[48,25,9,24,30,15,22,11,10,12],"responseType":"finish","internal_node_id":"0.0-2.0-0.0","time_elapsed":67392,"trial_index":2,"trial_type":"survey-likert","responses":"{\"Q0\":\"4\",\"Q1\":\"1\",\"Q2\":\"1\",\"Q3\":\"0\"}","rt":37761},{"participantID":"6zrjja7t4bew8vaxabcu9ycw0c5mpbeo","judgmentIndices":[2,3,0,1],"questionScores":[null,null,null,null,null,null,null,null,null,null],"questionIndices":[48,25,9,24,30,15,22,11,10,12],"responseType":"finish","internal_node_id":"0.0-2.0-1.0","time_elapsed":84376,"trial_index":3,"trial_type":"survey-likert","responses":"{\"Q0\":\"5\",\"Q1\":\"6\",\"Q2\":\"6\",\"Q3\":\"4\"}","rt":15981},{"participantID":"6zrjja7t4bew8vaxabcu9ycw0c5mpbeo","judgmentIndices":[2,3,0,1],"questionScores":[null,null,null,null,null,null,null,null,null,null],"questionIndices":[48,25,9,24,30,15,22,11,10,12],"responseType":"finish","internal_node_id":"0.0-2.0-2.0","time_elapsed":106507,"trial_index":4,"trial_type":"survey-likert","responses":"{\"Q0\":\"5\",\"Q1\":\"6\",\"Q2\":\"6\",\"Q3\":\"1\"}","rt":21127},{"participantID":"6zrjja7t4bew8vaxabcu9ycw0c5mpbeo","judgmentIndices":[2,3,0,1],"questionScores":[null,null,null,null,null,null,null,null,null,null],"questionIndices":[48,25,9,24,30,15,22,11,10,12],"responseType":"finish","internal_node_id":"0.0-2.0-3.0","time_elapsed":122950,"trial_index":5,"trial_type":"survey-likert","responses":"{\"Q0\":\"3\",\"Q1\":\"0\",\"Q2\":\"1\",\"Q3\":\"0\"}","rt":15438},{"participantID":"6zrjja7t4bew8vaxabcu9ycw0c5mpbeo","judgmentIndices":[2,3,0,1],"questionScores":[null,null,null,null,null,null,null,null,null,null],"questionIndices":[48,25,9,24,30,15,22,11,10,12],"responseType":"finish","internal_node_id":"0.0-2.0-4.0","time_elapsed":141560,"trial_index":6,"trial_type":"survey-likert","responses":"{\"Q0\":\"4\",\"Q1\":\"3\",\"Q2\":\"5\",\"Q3\":\"1\"}","rt":17605},{"participantID":"6zrjja7t4bew8vaxabcu9ycw0c5mpbeo","judgmentIndices":[2,3,0,1],"questionScores":[null,null,null,null,null,null,null,null,null,null],"questionIndices":[48,25,9,24,30,15,22,11,10,12],"responseType":"finish","internal_node_id":"0.0-3.0","time_elapsed":184302,"trial_index":7,"trial_type":"survey-likert","responses":"{\"Q0\":\"6\",\"Q1\":\"4\",\"Q2\":\"6\",\"Q3\":\"3\",\"Q4\":\"6\"}","rt":41737},{"participantID":"6zrjja7t4bew8vaxabcu9ycw0c5mpbeo","judgmentIndices":[2,3,0,1],"questionScores":[null,null,null,null,null,null,null,null,null,null],"questionIndices":[48,25,9,24,30,15,22,11,10,12],"responseType":"finish","internal_node_id":"0.0-4.0-0.0","time_elapsed":202959,"trial_index":8,"trial_type":"survey-likert","responses":"{\"Q0\":\"6\",\"Q1\":\"4\",\"Q2\":\"6\",\"Q3\":\"2\"}","rt":17653},{"participantID":"6zrjja7t4bew8vaxabcu9ycw0c5mpbeo","judgmentIndices":[2,3,0,1],"questionScores":[null,null,null,null,null,null,null,null,null,null],"questionIndices":[48,25,9,24,30,15,22,11,10,12],"responseType":"finish","internal_node_id":"0.0-4.0-1.0","time_elapsed":220274,"trial_index":9,"trial_type":"survey-likert","responses":"{\"Q0\":\"5\",\"Q1\":\"3\",\"Q2\":\"5\",\"Q3\":\"2\"}","rt":16310},{"participantID":"6zrjja7t4bew8vaxabcu9ycw0c5mpbeo","judgmentIndices":[2,3,0,1],"questionScores":[null,null,null,null,null,null,null,null,null,null],"questionIndices":[48,25,9,24,30,15,22,11,10,12],"responseType":"finish","internal_node_id":"0.0-4.0-2.0","time_elapsed":234796,"trial_index":10,"trial_type":"survey-likert","responses":"{\"Q0\":\"2\",\"Q1\":\"1\",\"Q2\":\"0\",\"Q3\":\"0\"}","rt":13519},{"participantID":"6zrjja7t4bew8vaxabcu9ycw0c5mpbeo","judgmentIndices":[2,3,0,1],"questionScores":[null,null,null,null,null,null,null,null,null,null],"questionIndices":[48,25,9,24,30,15,22,11,10,12],"responseType":"finish","internal_node_id":"0.0-4.0-3.0","time_elapsed":248542,"trial_index":11,"trial_type":"survey-likert","responses":"{\"Q0\":\"6\",\"Q1\":\"6\",\"Q2\":\"6\",\"Q3\":\"2\"}","rt":12743}],"__v":0}
{"_id":{"$oid":"5cf45c59e63a58000419ea85"},"data":[{"participantID":"nrhed2m96st68dq8zwxsdserczxwjfsr","judgmentIndices":[2,3,0,1],"questionScores":[null,null,null,null,null,null,null,null,null,null],"questionIndices":[7,21,45,49,11,31,22,15,48,36],"responseType":"finish","internal_node_id":"0.0-0.0","time_elapsed":21480,"trial_index":0,"trial_type":"survey-multi-choice","responses":"{\"Q0\":\"I consent to participate\"}","rt":21155},{"participantID":"nrhed2m96st68dq8zwxsdserczxwjfsr","judgmentIndices":[2,3,0,1],"questionScores":[null,null,null,null,null,null,null,null,null,null],"questionIndices":[7,21,45,49,11,31,22,15,48,36],"responseType":"finish","internal_node_id":"0.0-1.0","time_elapsed":29416,"trial_index":1,"trial_type":"instructions","rt":6917,"view_history":"[{\"page_index\":0,\"viewing_time\":6902}]"},{"participantID":"nrhed2m96st68dq8zwxsdserczxwjfsr","judgmentIndices":[2,3,0,1],"questionScores":[null,null,null,null,null,null,null,null,null,null],"questionIndices":[7,21,45,49,11,31,22,15,48,36],"responseType":"finish","internal_node_id":"0.0-2.0-0.0","time_elapsed":71409,"trial_index":2,"trial_type":"survey-likert","responses":"{\"Q0\":\"4\",\"Q1\":\"2\",\"Q2\":\"5\",\"Q3\":\"0\"}","rt":40782},{"participantID":"nrhed2m96st68dq8zwxsdserczxwjfsr","judgmentIndices":[2,3,0,1],"questionScores":[null,null,null,null,null,null,null,null,null,null],"questionIndices":[7,21,45,49,11,31,22,15,48,36],"responseType":"finish","internal_node_id":"0.0-2.0-1.0","time_elapsed":94822,"trial_index":3,"trial_type":"survey-likert","responses":"{\"Q0\":\"1\",\"Q1\":\"0\",\"Q2\":\"2\",\"Q3\":\"0\"}","rt":22345},{"participantID":"nrhed2m96st68dq8zwxsdserczxwjfsr","judgmentIndices":[2,3,0,1],"questionScores":[null,null,null,null,null,null,null,null,null,null],"questionIndices":[7,21,45,49,11,31,22,15,48,36],"responseType":"finish","internal_node_id":"0.0-2.0-2.0","time_elapsed":116693,"trial_index":4,"trial_type":"survey-likert","responses":"{\"Q0\":\"0\",\"Q1\":\"1\",\"Q2\":\"0\",\"Q3\":\"0\"}","rt":20806},{"participantID":"nrhed2m96st68dq8zwxsdserczxwjfsr","judgmentIndices":[2,3,0,1],"questionScores":[null,null,null,null,null,null,null,null,null,null],"questionIndices":[7,21,45,49,11,31,22,15,48,36],"responseType":"finish","internal_node_id":"0.0-2.0-3.0","time_elapsed":143704,"trial_index":5,"trial_type":"survey-likert","responses":"{\"Q0\":\"1\",\"Q1\":\"0\",\"Q2\":\"1\",\"Q3\":\"0\"}","rt":25950},{"participantID":"nrhed2m96st68dq8zwxsdserczxwjfsr","judgmentIndices":[2,3,0,1],"questionScores":[null,null,null,null,null,null,null,null,null,null],"questionIndices":[7,21,45,49,11,31,22,15,48,36],"responseType":"finish","internal_node_id":"0.0-2.0-4.0","time_elapsed":164048,"trial_index":6,"trial_type":"survey-likert","responses":"{\"Q0\":\"6\",\"Q1\":\"2\",\"Q2\":\"6\",\"Q3\":\"0\"}","rt":19297},{"participantID":"nrhed2m96st68dq8zwxsdserczxwjfsr","judgmentIndices":[2,3,0,1],"questionScores":[null,null,null,null,null,null,null,null,null,null],"questionIndices":[7,21,45,49,11,31,22,15,48,36],"responseType":"finish","internal_node_id":"0.0-3.0","time_elapsed":193233,"trial_index":7,"trial_type":"survey-likert","responses":"{\"Q0\":\"0\",\"Q1\":\"1\",\"Q2\":\"1\",\"Q3\":\"0\",\"Q4\":\"6\"}","rt":28121},{"participantID":"nrhed2m96st68dq8zwxsdserczxwjfsr","judgmentIndices":[2,3,0,1],"questionScores":[null,null,null,null,null,null,null,null,null,null],"questionIndices":[7,21,45,49,11,31,22,15,48,36],"responseType":"finish","internal_node_id":"0.0-4.0-0.0","time_elapsed":219801,"trial_index":8,"trial_type":"survey-likert","responses":"{\"Q0\":\"1\",\"Q1\":\"2\",\"Q2\":\"6\",\"Q3\":\"0\"}","rt":25517},{"participantID":"nrhed2m96st68dq8zwxsdserczxwjfsr","judgmentIndices":[2,3,0,1],"questionScores":[null,null,null,null,null,null,null,null,null,null],"questionIndices":[7,21,45,49,11,31,22,15,48,36],"responseType":"finish","internal_node_id":"0.0-4.0-1.0","time_elapsed":244509,"trial_index":9,"trial_type":"survey-likert","responses":"{\"Q0\":\"5\",\"Q1\":\"4\",\"Q2\":\"6\",\"Q3\":\"0\"}","rt":23631},{"participantID":"nrhed2m96st68dq8zwxsdserczxwjfsr","judgmentIndices":[2,3,0,1],"questionScores":[null,null,null,null,null,null,null,null,null,null],"questionIndices":[7,21,45,49,11,31,22,15,48,36],"responseType":"finish","internal_node_id":"0.0-4.0-2.0","time_elapsed":266674,"trial_index":10,"trial_type":"survey-likert","responses":"{\"Q0\":\"2\",\"Q1\":\"1\",\"Q2\":\"2\",\"Q3\":\"0\"}","rt":21106},{"participantID":"nrhed2m96st68dq8zwxsdserczxwjfsr","judgmentIndices":[2,3,0,1],"questionScores":[null,null,null,null,null,null,null,null,null,null],"questionIndices":[7,21,45,49,11,31,22,15,48,36],"responseType":"finish","internal_node_id":"0.0-4.0-3.0","time_elapsed":296556,"trial_index":11,"trial_type":"survey-likert","responses":"{\"Q0\":\"1\",\"Q1\":\"0\",\"Q2\":\"2\",\"Q3\":\"0\"}","rt":28818}],"__v":0}
{"_id":{"$oid":"5cf477e4ec9a310004f56cc7"},"data":[{"participantID":"e70mv2xt6n16oobvef25yyf6ryoldvc5","judgmentIndices":[0,2,1,3],"questionScores":[null,null,null,null,null,null,null,null,null,null],"questionIndices":[8,38,26,32,3,28,49,33,4,42],"responseType":"finish","internal_node_id":"0.0-0.0","time_elapsed":6001,"trial_index":0,"trial_type":"survey-multi-choice","responses":"{\"Q0\":\"I consent to participate\"}","rt":5989},{"participantID":"e70mv2xt6n16oobvef25yyf6ryoldvc5","judgmentIndices":[0,2,1,3],"questionScores":[null,null,null,null,null,null,null,null,null,null],"questionIndices":[8,38,26,32,3,28,49,33,4,42],"responseType":"finish","internal_node_id":"0.0-1.0","time_elapsed":11548,"trial_index":1,"trial_type":"instructions","rt":4544,"view_history":"[{\"page_index\":0,\"viewing_time\":4542}]"},{"participantID":"e70mv2xt6n16oobvef25yyf6ryoldvc5","judgmentIndices":[0,2,1,3],"questionScores":[null,null,null,null,null,null,null,null,null,null],"questionIndices":[8,38,26,32,3,28,49,33,4,42],"responseType":"finish","internal_node_id":"0.0-2.0-0.0","time_elapsed":36254,"trial_index":2,"trial_type":"survey-likert","responses":"{\"Q0\":\"1\",\"Q1\":\"1\",\"Q2\":\"2\",\"Q3\":\"1\"}","rt":23690},{"participantID":"e70mv2xt6n16oobvef25yyf6ryoldvc5","judgmentIndices":[0,2,1,3],"questionScores":[null,null,null,null,null,null,null,null,null,null],"questionIndices":[8,38,26,32,3,28,49,33,4,42],"responseType":"finish","internal_node_id":"0.0-2.0-1.0","time_elapsed":55769,"trial_index":3,"trial_type":"survey-likert","responses":"{\"Q0\":\"3\",\"Q1\":\"2\",\"Q2\":\"4\",\"Q3\":\"2\"}","rt":18508},{"participantID":"e70mv2xt6n16oobvef25yyf6ryoldvc5","judgmentIndices":[0,2,1,3],"questionScores":[null,null,null,null,null,null,null,null,null,null],"questionIndices":[8,38,26,32,3,28,49,33,4,42],"responseType":"finish","internal_node_id":"0.0-2.0-2.0","time_elapsed":71261,"trial_index":4,"trial_type":"survey-likert","responses":"{\"Q0\":\"4\",\"Q1\":\"4\",\"Q2\":\"2\",\"Q3\":\"4\"}","rt":14479},{"participantID":"e70mv2xt6n16oobvef25yyf6ryoldvc5","judgmentIndices":[0,2,1,3],"questionScores":[null,null,null,null,null,null,null,null,null,null],"questionIndices":[8,38,26,32,3,28,49,33,4,42],"responseType":"finish","internal_node_id":"0.0-2.0-3.0","time_elapsed":87415,"trial_index":5,"trial_type":"survey-likert","responses":"{\"Q0\":\"5\",\"Q1\":\"3\",\"Q2\":\"2\",\"Q3\":\"3\"}","rt":15134},{"participantID":"e70mv2xt6n16oobvef25yyf6ryoldvc5","judgmentIndices":[0,2,1,3],"questionScores":[null,null,null,null,null,null,null,null,null,null],"questionIndices":[8,38,26,32,3,28,49,33,4,42],"responseType":"finish","internal_node_id":"0.0-2.0-4.0","time_elapsed":99766,"trial_index":6,"trial_type":"survey-likert","responses":"{\"Q0\":\"5\",\"Q1\":\"4\",\"Q2\":\"4\",\"Q3\":\"5\"}","rt":11340},{"participantID":"e70mv2xt6n16oobvef25yyf6ryoldvc5","judgmentIndices":[0,2,1,3],"questionScores":[null,null,null,null,null,null,null,null,null,null],"questionIndices":[8,38,26,32,3,28,49,33,4,42],"responseType":"finish","internal_node_id":"0.0-3.0","time_elapsed":119466,"trial_index":7,"trial_type":"survey-likert","responses":"{\"Q0\":\"5\",\"Q1\":\"4\",\"Q2\":\"1\",\"Q3\":\"4\",\"Q4\":\"6\"}","rt":18686},{"participantID":"e70mv2xt6n16oobvef25yyf6ryoldvc5","judgmentIndices":[0,2,1,3],"questionScores":[null,null,null,null,null,null,null,null,null,null],"questionIndices":[8,38,26,32,3,28,49,33,4,42],"responseType":"finish","internal_node_id":"0.0-4.0-0.0","time_elapsed":142918,"trial_index":8,"trial_type":"survey-likert","responses":"{\"Q0\":\"5\",\"Q1\":\"4\",\"Q2\":\"3\",\"Q3\":\"4\"}","rt":22429},{"participantID":"e70mv2xt6n16oobvef25yyf6ryoldvc5","judgmentIndices":[0,2,1,3],"questionScores":[null,null,null,null,null,null,null,null,null,null],"questionIndices":[8,38,26,32,3,28,49,33,4,42],"responseType":"finish","internal_node_id":"0.0-4.0-1.0","time_elapsed":166752,"trial_index":9,"trial_type":"survey-likert","responses":"{\"Q0\":\"6\",\"Q1\":\"4\",\"Q2\":\"0\",\"Q3\":\"3\"}","rt":22808},{"participantID":"e70mv2xt6n16oobvef25yyf6ryoldvc5","judgmentIndices":[0,2,1,3],"questionScores":[null,null,null,null,null,null,null,null,null,null],"questionIndices":[8,38,26,32,3,28,49,33,4,42],"responseType":"finish","internal_node_id":"0.0-4.0-2.0","time_elapsed":256826,"trial_index":10,"trial_type":"survey-likert","responses":"{\"Q0\":\"1\",\"Q1\":\"1\",\"Q2\":\"5\",\"Q3\":\"3\"}","rt":89055},{"participantID":"e70mv2xt6n16oobvef25yyf6ryoldvc5","judgmentIndices":[0,2,1,3],"questionScores":[null,null,null,null,null,null,null,null,null,null],"questionIndices":[8,38,26,32,3,28,49,33,4,42],"responseType":"finish","internal_node_id":"0.0-4.0-3.0","time_elapsed":272036,"trial_index":11,"trial_type":"survey-likert","responses":"{\"Q0\":\"2\",\"Q1\":\"3\",\"Q2\":\"2\",\"Q3\":\"3\"}","rt":14201}],"__v":0}
{"_id":{"$oid":"5cf4784fec9a310004f56cc8"},"data":[{"participantID":"8c1xmrtu7lara54jrxqxygf54f68husc","judgmentIndices":[3,1,0,2],"questionScores":[null,null,null,null,null,null,null,null,null,null],"questionIndices":[9,5,15,44,2,27,0,49,46,6],"responseType":"finish","internal_node_id":"0.0-0.0","time_elapsed":25944,"trial_index":0,"trial_type":"survey-multi-choice","responses":"{\"Q0\":\"I consent to participate\"}","rt":25935},{"participantID":"8c1xmrtu7lara54jrxqxygf54f68husc","judgmentIndices":[3,1,0,2],"questionScores":[null,null,null,null,null,null,null,null,null,null],"questionIndices":[9,5,15,44,2,27,0,49,46,6],"responseType":"finish","internal_node_id":"0.0-1.0","time_elapsed":29095,"trial_index":1,"trial_type":"instructions","rt":2149,"view_history":"[{\"page_index\":0,\"viewing_time\":2149}]"},{"participantID":"8c1xmrtu7lara54jrxqxygf54f68husc","judgmentIndices":[3,1,0,2],"questionScores":[null,null,null,null,null,null,null,null,null,null],"questionIndices":[9,5,15,44,2,27,0,49,46,6],"responseType":"finish","internal_node_id":"0.0-2.0-0.0","time_elapsed":73474,"trial_index":2,"trial_type":"survey-likert","responses":"{\"Q0\":\"6\",\"Q1\":\"6\",\"Q2\":\"0\",\"Q3\":\"3\"}","rt":43372},{"participantID":"8c1xmrtu7lara54jrxqxygf54f68husc","judgmentIndices":[3,1,0,2],"questionScores":[null,null,null,null,null,null,null,null,null,null],"questionIndices":[9,5,15,44,2,27,0,49,46,6],"responseType":"finish","internal_node_id":"0.0-2.0-1.0","time_elapsed":110978,"trial_index":3,"trial_type":"survey-likert","responses":"{\"Q0\":\"5\",\"Q1\":\"2\",\"Q2\":\"4\",\"Q3\":\"4\"}","rt":36499},{"participantID":"8c1xmrtu7lara54jrxqxygf54f68husc","judgmentIndices":[3,1,0,2],"questionScores":[null,null,null,null,null,null,null,null,null,null],"questionIndices":[9,5,15,44,2,27,0,49,46,6],"responseType":"finish","internal_node_id":"0.0-2.0-2.0","time_elapsed":133443,"trial_index":4,"trial_type":"survey-likert","responses":"{\"Q0\":\"6\",\"Q1\":\"0\",\"Q2\":\"6\",\"Q3\":\"6\"}","rt":21459},{"participantID":"8c1xmrtu7lara54jrxqxygf54f68husc","judgmentIndices":[3,1,0,2],"questionScores":[null,null,null,null,null,null,null,null,null,null],"questionIndices":[9,5,15,44,2,27,0,49,46,6],"responseType":"finish","internal_node_id":"0.0-2.0-3.0","time_elapsed":152772,"trial_index":5,"trial_type":"survey-likert","responses":"{\"Q0\":\"6\",\"Q1\":\"0\",\"Q2\":\"6\",\"Q3\":\"6\"}","rt":18323},{"participantID":"8c1xmrtu7lara54jrxqxygf54f68husc","judgmentIndices":[3,1,0,2],"questionScores":[null,null,null,null,null,null,null,null,null,null],"questionIndices":[9,5,15,44,2,27,0,49,46,6],"responseType":"finish","internal_node_id":"0.0-2.0-4.0","time_elapsed":174645,"trial_index":6,"trial_type":"survey-likert","responses":"{\"Q0\":\"6\",\"Q1\":\"0\",\"Q2\":\"6\",\"Q3\":\"6\"}","rt":20868},{"participantID":"8c1xmrtu7lara54jrxqxygf54f68husc","judgmentIndices":[3,1,0,2],"questionScores":[null,null,null,null,null,null,null,null,null,null],"questionIndices":[9,5,15,44,2,27,0,49,46,6],"responseType":"finish","internal_node_id":"0.0-3.0","time_elapsed":225736,"trial_index":7,"trial_type":"survey-likert","responses":"{\"Q0\":\"6\",\"Q1\":\"0\",\"Q2\":\"6\",\"Q3\":\"6\",\"Q4\":\"6\"}","rt":50086},{"participantID":"8c1xmrtu7lara54jrxqxygf54f68husc","judgmentIndices":[3,1,0,2],"questionScores":[null,null,null,null,null,null,null,null,null,null],"questionIndices":[9,5,15,44,2,27,0,49,46,6],"responseType":"finish","internal_node_id":"0.0-4.0-0.0","time_elapsed":251152,"trial_index":8,"trial_type":"survey-likert","responses":"{\"Q0\":\"6\",\"Q1\":\"0\",\"Q2\":\"6\",\"Q3\":\"2\"}","rt":24412},{"participantID":"8c1xmrtu7lara54jrxqxygf54f68husc","judgmentIndices":[3,1,0,2],"questionScores":[null,null,null,null,null,null,null,null,null,null],"questionIndices":[9,5,15,44,2,27,0,49,46,6],"responseType":"finish","internal_node_id":"0.0-4.0-1.0","time_elapsed":279106,"trial_index":9,"trial_type":"survey-likert","responses":"{\"Q0\":\"6\",\"Q1\":\"0\",\"Q2\":\"0\",\"Q3\":\"2\"}","rt":26947},{"participantID":"8c1xmrtu7lara54jrxqxygf54f68husc","judgmentIndices":[3,1,0,2],"questionScores":[null,null,null,null,null,null,null,null,null,null],"questionIndices":[9,5,15,44,2,27,0,49,46,6],"responseType":"finish","internal_node_id":"0.0-4.0-2.0","time_elapsed":302979,"trial_index":10,"trial_type":"survey-likert","responses":"{\"Q0\":\"6\",\"Q1\":\"0\",\"Q2\":\"6\",\"Q3\":\"0\"}","rt":22868},{"participantID":"8c1xmrtu7lara54jrxqxygf54f68husc","judgmentIndices":[3,1,0,2],"questionScores":[null,null,null,null,null,null,null,null,null,null],"questionIndices":[9,5,15,44,2,27,0,49,46,6],"responseType":"finish","internal_node_id":"0.0-4.0-3.0","time_elapsed":320988,"trial_index":11,"trial_type":"survey-likert","responses":"{\"Q0\":\"6\",\"Q1\":\"0\",\"Q2\":\"6\",\"Q3\":\"6\"}","rt":17003}],"__v":0}
{"_id":{"$oid":"5cf48242ec9a310004f56cc9"},"data":[{"participantID":"5pgdgpdgw5sl0rtc2695d0p3uadml0ls","judgmentIndices":[1,3,0,2],"questionScores":[null,null,null,null,null,null,null,null,null,null],"questionIndices":[16,34,19,25,3,20,44,37,17,11],"responseType":"finish","internal_node_id":"0.0-0.0","time_elapsed":8456,"trial_index":0,"trial_type":"survey-multi-choice","responses":"{\"Q0\":\"I consent to participate\"}","rt":8441},{"participantID":"5pgdgpdgw5sl0rtc2695d0p3uadml0ls","judgmentIndices":[1,3,0,2],"questionScores":[null,null,null,null,null,null,null,null,null,null],"questionIndices":[16,34,19,25,3,20,44,37,17,11],"responseType":"finish","internal_node_id":"0.0-1.0","time_elapsed":13708,"trial_index":1,"trial_type":"instructions","rt":4251,"view_history":"[{\"page_index\":0,\"viewing_time\":4251}]"},{"participantID":"5pgdgpdgw5sl0rtc2695d0p3uadml0ls","judgmentIndices":[1,3,0,2],"questionScores":[null,null,null,null,null,null,null,null,null,null],"questionIndices":[16,34,19,25,3,20,44,37,17,11],"responseType":"finish","internal_node_id":"0.0-2.0-0.0","time_elapsed":32768,"trial_index":2,"trial_type":"survey-likert","responses":"{\"Q0\":\"0\",\"Q1\":\"0\",\"Q2\":\"5\",\"Q3\":\"3\"}","rt":18053},{"participantID":"5pgdgpdgw5sl0rtc2695d0p3uadml0ls","judgmentIndices":[1,3,0,2],"questionScores":[null,null,null,null,null,null,null,null,null,null],"questionIndices":[16,34,19,25,3,20,44,37,17,11],"responseType":"finish","internal_node_id":"0.0-2.0-1.0","time_elapsed":51537,"trial_index":3,"trial_type":"survey-likert","responses":"{\"Q0\":\"5\",\"Q1\":\"4\",\"Q2\":\"4\",\"Q3\":\"6\"}","rt":17763},{"participantID":"5pgdgpdgw5sl0rtc2695d0p3uadml0ls","judgmentIndices":[1,3,0,2],"questionScores":[null,null,null,null,null,null,null,null,null,null],"questionIndices":[16,34,19,25,3,20,44,37,17,11],"responseType":"finish","internal_node_id":"0.0-2.0-2.0","time_elapsed":65533,"trial_index":4,"trial_type":"survey-likert","responses":"{\"Q0\":\"0\",\"Q1\":\"2\",\"Q2\":\"6\",\"Q3\":\"4\"}","rt":12990},{"participantID":"5pgdgpdgw5sl0rtc2695d0p3uadml0ls","judgmentIndices":[1,3,0,2],"questionScores":[null,null,null,null,null,null,null,null,null,null],"questionIndices":[16,34,19,25,3,20,44,37,17,11],"responseType":"finish","internal_node_id":"0.0-2.0-3.0","time_elapsed":80260,"trial_index":5,"trial_type":"survey-likert","responses":"{\"Q0\":\"2\",\"Q1\":\"3\",\"Q2\":\"6\",\"Q3\":\"3\"}","rt":13722},{"participantID":"5pgdgpdgw5sl0rtc2695d0p3uadml0ls","judgmentIndices":[1,3,0,2],"questionScores":[null,null,null,null,null,null,null,null,null,null],"questionIndices":[16,34,19,25,3,20,44,37,17,11],"responseType":"finish","internal_node_id":"0.0-2.0-4.0","time_elapsed":113878,"trial_index":6,"trial_type":"survey-likert","responses":"{\"Q0\":\"1\",\"Q1\":\"3\",\"Q2\":\"6\",\"Q3\":\"2\"}","rt":32613},{"participantID":"5pgdgpdgw5sl0rtc2695d0p3uadml0ls","judgmentIndices":[1,3,0,2],"questionScores":[null,null,null,null,null,null,null,null,null,null],"questionIndices":[16,34,19,25,3,20,44,37,17,11],"responseType":"finish","internal_node_id":"0.0-3.0","time_elapsed":191820,"trial_index":7,"trial_type":"survey-likert","responses":"{\"Q0\":\"0\",\"Q1\":\"3\",\"Q2\":\"6\",\"Q3\":\"1\",\"Q4\":\"6\"}","rt":76935},{"participantID":"5pgdgpdgw5sl0rtc2695d0p3uadml0ls","judgmentIndices":[1,3,0,2],"questionScores":[null,null,null,null,null,null,null,null,null,null],"questionIndices":[16,34,19,25,3,20,44,37,17,11],"responseType":"finish","internal_node_id":"0.0-4.0-0.0","time_elapsed":279695,"trial_index":8,"trial_type":"survey-likert","responses":"{\"Q0\":\"4\",\"Q1\":\"3\",\"Q2\":\"1\",\"Q3\":\"1\"}","rt":86869},{"participantID":"5pgdgpdgw5sl0rtc2695d0p3uadml0ls","judgmentIndices":[1,3,0,2],"questionScores":[null,null,null,null,null,null,null,null,null,null],"questionIndices":[16,34,19,25,3,20,44,37,17,11],"responseType":"finish","internal_node_id":"0.0-4.0-1.0","time_elapsed":372884,"trial_index":9,"trial_type":"survey-likert","responses":"{\"Q0\":\"0\",\"Q1\":\"1\",\"Q2\":\"6\",\"Q3\":\"3\"}","rt":92184},{"participantID":"5pgdgpdgw5sl0rtc2695d0p3uadml0ls","judgmentIndices":[1,3,0,2],"questionScores":[null,null,null,null,null,null,null,null,null,null],"questionIndices":[16,34,19,25,3,20,44,37,17,11],"responseType":"finish","internal_node_id":"0.0-4.0-2.0","time_elapsed":509246,"trial_index":10,"trial_type":"survey-likert","responses":"{\"Q0\":\"1\",\"Q1\":\"3\",\"Q2\":\"5\",\"Q3\":\"1\"}","rt":135357},{"participantID":"5pgdgpdgw5sl0rtc2695d0p3uadml0ls","judgmentIndices":[1,3,0,2],"questionScores":[null,null,null,null,null,null,null,null,null,null],"questionIndices":[16,34,19,25,3,20,44,37,17,11],"responseType":"finish","internal_node_id":"0.0-4.0-3.0","time_elapsed":588479,"trial_index":11,"trial_type":"survey-likert","responses":"{\"Q0\":\"4\",\"Q1\":\"3\",\"Q2\":\"5\",\"Q3\":\"4\"}","rt":78228}],"__v":0}
{"_id":{"$oid":"5cf484e2ec9a310004f56cca"},"data":[{"participantID":"pvvtyz7pg06ofy3pq5ul3oucz36hhu4w","judgmentIndices":[0,2,1,3],"questionScores":[null,null,null,null,null,null,null,null,null,null],"questionIndices":[1,30,39,14,43,18,20,5,37,32],"responseType":"finish","internal_node_id":"0.0-0.0","time_elapsed":9261,"trial_index":0,"trial_type":"survey-multi-choice","responses":"{\"Q0\":\"I consent to participate\"}","rt":9234},{"participantID":"pvvtyz7pg06ofy3pq5ul3oucz36hhu4w","judgmentIndices":[0,2,1,3],"questionScores":[null,null,null,null,null,null,null,null,null,null],"questionIndices":[1,30,39,14,43,18,20,5,37,32],"responseType":"finish","internal_node_id":"0.0-1.0","time_elapsed":14504,"trial_index":1,"trial_type":"instructions","rt":4239,"view_history":"[{\"page_index\":0,\"viewing_time\":4237}]"},{"participantID":"pvvtyz7pg06ofy3pq5ul3oucz36hhu4w","judgmentIndices":[0,2,1,3],"questionScores":[null,null,null,null,null,null,null,null,null,null],"questionIndices":[1,30,39,14,43,18,20,5,37,32],"responseType":"finish","internal_node_id":"0.0-2.0-0.0","time_elapsed":33943,"trial_index":2,"trial_type":"survey-likert","responses":"{\"Q0\":\"5\",\"Q1\":\"4\",\"Q2\":\"0\",\"Q3\":\"3\"}","rt":18424},{"participantID":"pvvtyz7pg06ofy3pq5ul3oucz36hhu4w","judgmentIndices":[0,2,1,3],"questionScores":[null,null,null,null,null,null,null,null,null,null],"questionIndices":[1,30,39,14,43,18,20,5,37,32],"responseType":"finish","internal_node_id":"0.0-2.0-1.0","time_elapsed":57879,"trial_index":3,"trial_type":"survey-likert","responses":"{\"Q0\":\"3\",\"Q1\":\"3\",\"Q2\":\"0\",\"Q3\":\"3\"}","rt":22924},{"participantID":"pvvtyz7pg06ofy3pq5ul3oucz36hhu4w","judgmentIndices":[0,2,1,3],"questionScores":[null,null,null,null,null,null,null,null,null,null],"questionIndices":[1,30,39,14,43,18,20,5,37,32],"responseType":"finish","internal_node_id":"0.0-2.0-2.0","time_elapsed":77846,"trial_index":4,"trial_type":"survey-likert","responses":"{\"Q0\":\"2\",\"Q1\":\"1\",\"Q2\":\"1\",\"Q3\":\"1\"}","rt":18951},{"participantID":"pvvtyz7pg06ofy3pq5ul3oucz36hhu4w","judgmentIndices":[0,2,1,3],"questionScores":[null,null,null,null,null,null,null,null,null,null],"questionIndices":[1,30,39,14,43,18,20,5,37,32],"responseType":"finish","internal_node_id":"0.0-2.0-3.0","time_elapsed":100251,"trial_index":5,"trial_type":"survey-likert","responses":"{\"Q0\":\"3\",\"Q1\":\"3\",\"Q2\":\"3\",\"Q3\":\"4\"}","rt":21393},{"participantID":"pvvtyz7pg06ofy3pq5ul3oucz36hhu4w","judgmentIndices":[0,2,1,3],"questionScores":[null,null,null,null,null,null,null,null,null,null],"questionIndices":[1,30,39,14,43,18,20,5,37,32],"responseType":"finish","internal_node_id":"0.0-2.0-4.0","time_elapsed":119234,"trial_index":6,"trial_type":"survey-likert","responses":"{\"Q0\":\"5\",\"Q1\":\"6\",\"Q2\":\"0\",\"Q3\":\"5\"}","rt":17971},{"participantID":"pvvtyz7pg06ofy3pq5ul3oucz36hhu4w","judgmentIndices":[0,2,1,3],"questionScores":[null,null,null,null,null,null,null,null,null,null],"questionIndices":[1,30,39,14,43,18,20,5,37,32],"responseType":"finish","internal_node_id":"0.0-3.0","time_elapsed":139061,"trial_index":7,"trial_type":"survey-likert","responses":"{\"Q0\":\"2\",\"Q1\":\"3\",\"Q2\":\"3\",\"Q3\":\"2\",\"Q4\":\"6\"}","rt":18815},{"participantID":"pvvtyz7pg06ofy3pq5ul3oucz36hhu4w","judgmentIndices":[0,2,1,3],"questionScores":[null,null,null,null,null,null,null,null,null,null],"questionIndices":[1,30,39,14,43,18,20,5,37,32],"responseType":"finish","internal_node_id":"0.0-4.0-0.0","time_elapsed":162843,"trial_index":8,"trial_type":"survey-likert","responses":"{\"Q0\":\"3\",\"Q1\":\"3\",\"Q2\":\"1\",\"Q3\":\"2\"}","rt":22774},{"participantID":"pvvtyz7pg06ofy3pq5ul3oucz36hhu4w","judgmentIndices":[0,2,1,3],"questionScores":[null,null,null,null,null,null,null,null,null,null],"questionIndices":[1,30,39,14,43,18,20,5,37,32],"responseType":"finish","internal_node_id":"0.0-4.0-1.0","time_elapsed":182296,"trial_index":9,"trial_type":"survey-likert","responses":"{\"Q0\":\"1\",\"Q1\":\"1\",\"Q2\":\"4\",\"Q3\":\"1\"}","rt":18442},{"participantID":"pvvtyz7pg06ofy3pq5ul3oucz36hhu4w","judgmentIndices":[0,2,1,3],"questionScores":[null,null,null,null,null,null,null,null,null,null],"questionIndices":[1,30,39,14,43,18,20,5,37,32],"responseType":"finish","internal_node_id":"0.0-4.0-2.0","time_elapsed":196250,"trial_index":10,"trial_type":"survey-likert","responses":"{\"Q0\":\"6\",\"Q1\":\"6\",\"Q2\":\"0\",\"Q3\":\"5\"}","rt":12940},{"participantID":"pvvtyz7pg06ofy3pq5ul3oucz36hhu4w","judgmentIndices":[0,2,1,3],"questionScores":[null,null,null,null,null,null,null,null,null,null],"questionIndices":[1,30,39,14,43,18,20,5,37,32],"responseType":"finish","internal_node_id":"0.0-4.0-3.0","time_elapsed":212858,"trial_index":11,"trial_type":"survey-likert","responses":"{\"Q0\":\"1\",\"Q1\":\"1\",\"Q2\":\"0\",\"Q3\":\"1\"}","rt":15599}],"__v":0}
{"_id":{"$oid":"5cf488aeec9a310004f56ccb"},"data":[{"participantID":"81el4l41zg02gbh2m10zlb510uvnf7tc","judgmentIndices":[2,0,1,3],"questionScores":[null,null,null,null,null,null,null,null,null,null],"questionIndices":[28,39,26,49,22,9,12,35,11,41],"responseType":"finish","internal_node_id":"0.0-0.0","time_elapsed":5792,"trial_index":0,"trial_type":"survey-multi-choice","responses":"{\"Q0\":\"I consent to participate\"}","rt":5757},{"participantID":"81el4l41zg02gbh2m10zlb510uvnf7tc","judgmentIndices":[2,0,1,3],"questionScores":[null,null,null,null,null,null,null,null,null,null],"questionIndices":[28,39,26,49,22,9,12,35,11,41],"responseType":"finish","internal_node_id":"0.0-1.0","time_elapsed":11770,"trial_index":1,"trial_type":"instructions","rt":4975,"view_history":"[{\"page_index\":0,\"viewing_time\":4974}]"},{"participantID":"81el4l41zg02gbh2m10zlb510uvnf7tc","judgmentIndices":[2,0,1,3],"questionScores":[null,null,null,null,null,null,null,null,null,null],"questionIndices":[28,39,26,49,22,9,12,35,11,41],"responseType":"finish","internal_node_id":"0.0-2.0-0.0","time_elapsed":39151,"trial_index":2,"trial_type":"survey-likert","responses":"{\"Q0\":\"0\",\"Q1\":\"3\",\"Q2\":\"0\",\"Q3\":\"0\"}","rt":26368},{"participantID":"81el4l41zg02gbh2m10zlb510uvnf7tc","judgmentIndices":[2,0,1,3],"questionScores":[null,null,null,null,null,null,null,null,null,null],"questionIndices":[28,39,26,49,22,9,12,35,11,41],"responseType":"finish","internal_node_id":"0.0-2.0-1.0","time_elapsed":64324,"trial_index":3,"trial_type":"survey-likert","responses":"{\"Q0\":\"0\",\"Q1\":\"5\",\"Q2\":\"0\",\"Q3\":\"2\"}","rt":24163},{"participantID":"81el4l41zg02gbh2m10zlb510uvnf7tc","judgmentIndices":[2,0,1,3],"questionScores":[null,null,null,null,null,null,null,null,null,null],"questionIndices":[28,39,26,49,22,9,12,35,11,41],"responseType":"finish","internal_node_id":"0.0-2.0-2.0","time_elapsed":83968,"trial_index":4,"trial_type":"survey-likert","responses":"{\"Q0\":\"2\",\"Q1\":\"3\",\"Q2\":\"1\",\"Q3\":\"1\"}","rt":18634},{"participantID":"81el4l41zg02gbh2m10zlb510uvnf7tc","judgmentIndices":[2,0,1,3],"questionScores":[null,null,null,null,null,null,null,null,null,null],"questionIndices":[28,39,26,49,22,9,12,35,11,41],"responseType":"finish","internal_node_id":"0.0-2.0-3.0","time_elapsed":103546,"trial_index":5,"trial_type":"survey-likert","responses":"{\"Q0\":\"0\",\"Q1\":\"0\",\"Q2\":\"0\",\"Q3\":\"1\"}","rt":18568},{"participantID":"81el4l41zg02gbh2m10zlb510uvnf7tc","judgmentIndices":[2,0,1,3],"questionScores":[null,null,null,null,null,null,null,null,null,null],"questionIndices":[28,39,26,49,22,9,12,35,11,41],"responseType":"finish","internal_node_id":"0.0-2.0-4.0","time_elapsed":121375,"trial_index":6,"trial_type":"survey-likert","responses":"{\"Q0\":\"1\",\"Q1\":\"6\",\"Q2\":\"0\",\"Q3\":\"3\"}","rt":16819},{"participantID":"81el4l41zg02gbh2m10zlb510uvnf7tc","judgmentIndices":[2,0,1,3],"questionScores":[null,null,null,null,null,null,null,null,null,null],"questionIndices":[28,39,26,49,22,9,12,35,11,41],"responseType":"finish","internal_node_id":"0.0-3.0","time_elapsed":150488,"trial_index":7,"trial_type":"survey-likert","responses":"{\"Q0\":\"4\",\"Q1\":\"6\",\"Q2\":\"0\",\"Q3\":\"5\",\"Q4\":\"6\"}","rt":28101},{"participantID":"81el4l41zg02gbh2m10zlb510uvnf7tc","judgmentIndices":[2,0,1,3],"questionScores":[null,null,null,null,null,null,null,null,null,null],"questionIndices":[28,39,26,49,22,9,12,35,11,41],"responseType":"finish","internal_node_id":"0.0-4.0-0.0","time_elapsed":170705,"trial_index":8,"trial_type":"survey-likert","responses":"{\"Q0\":\"6\",\"Q1\":\"6\",\"Q2\":\"0\",\"Q3\":\"6\"}","rt":19206},{"participantID":"81el4l41zg02gbh2m10zlb510uvnf7tc","judgmentIndices":[2,0,1,3],"questionScores":[null,null,null,null,null,null,null,null,null,null],"questionIndices":[28,39,26,49,22,9,12,35,11,41],"responseType":"finish","internal_node_id":"0.0-4.0-1.0","time_elapsed":188082,"trial_index":9,"trial_type":"survey-likert","responses":"{\"Q0\":\"0\",\"Q1\":\"0\",\"Q2\":\"0\",\"Q3\":\"0\"}","rt":16366},{"participantID":"81el4l41zg02gbh2m10zlb510uvnf7tc","judgmentIndices":[2,0,1,3],"questionScores":[null,null,null,null,null,null,null,null,null,null],"questionIndices":[28,39,26,49,22,9,12,35,11,41],"responseType":"finish","internal_node_id":"0.0-4.0-2.0","time_elapsed":201440,"trial_index":10,"trial_type":"survey-likert","responses":"{\"Q0\":\"0\",\"Q1\":\"0\",\"Q2\":\"0\",\"Q3\":\"0\"}","rt":12344},{"participantID":"81el4l41zg02gbh2m10zlb510uvnf7tc","judgmentIndices":[2,0,1,3],"questionScores":[null,null,null,null,null,null,null,null,null,null],"questionIndices":[28,39,26,49,22,9,12,35,11,41],"responseType":"finish","internal_node_id":"0.0-4.0-3.0","time_elapsed":211752,"trial_index":11,"trial_type":"survey-likert","responses":"{\"Q0\":\"0\",\"Q1\":\"0\",\"Q2\":\"0\",\"Q3\":\"0\"}","rt":9300}],"__v":0}
{"_id":{"$oid":"5cf48babec9a310004f56ccc"},"data":[{"participantID":"ufy53k0l4632wgqsjvlcp3basry03l37","judgmentIndices":[3,2,0,1],"questionScores":[null,null,null,null,null,null,null,null,null,null],"questionIndices":[5,21,28,35,24,23,13,29,2,12],"responseType":"finish","internal_node_id":"0.0-0.0","time_elapsed":6643,"trial_index":0,"trial_type":"survey-multi-choice","responses":"{\"Q0\":\"I consent to participate\"}","rt":6631},{"participantID":"ufy53k0l4632wgqsjvlcp3basry03l37","judgmentIndices":[3,2,0,1],"questionScores":[null,null,null,null,null,null,null,null,null,null],"questionIndices":[5,21,28,35,24,23,13,29,2,12],"responseType":"finish","internal_node_id":"0.0-1.0","time_elapsed":13793,"trial_index":1,"trial_type":"instructions","rt":6149,"view_history":"[{\"page_index\":0,\"viewing_time\":6148}]"},{"participantID":"ufy53k0l4632wgqsjvlcp3basry03l37","judgmentIndices":[3,2,0,1],"questionScores":[null,null,null,null,null,null,null,null,null,null],"questionIndices":[5,21,28,35,24,23,13,29,2,12],"responseType":"finish","internal_node_id":"0.0-2.0-0.0","time_elapsed":57460,"trial_index":2,"trial_type":"survey-likert","responses":"{\"Q0\":\"0\",\"Q1\":\"0\",\"Q2\":\"2\",\"Q3\":\"0\"}","rt":42659},{"participantID":"ufy53k0l4632wgqsjvlcp3basry03l37","judgmentIndices":[3,2,0,1],"questionScores":[null,null,null,null,null,null,null,null,null,null],"questionIndices":[5,21,28,35,24,23,13,29,2,12],"responseType":"finish","internal_node_id":"0.0-2.0-1.0","time_elapsed":81117,"trial_index":3,"trial_type":"survey-likert","responses":"{\"Q0\":\"0\",\"Q1\":\"2\",\"Q2\":\"6\",\"Q3\":\"0\"}","rt":22654},{"participantID":"ufy53k0l4632wgqsjvlcp3basry03l37","judgmentIndices":[3,2,0,1],"questionScores":[null,null,null,null,null,null,null,null,null,null],"questionIndices":[5,21,28,35,24,23,13,29,2,12],"responseType":"finish","internal_node_id":"0.0-2.0-2.0","time_elapsed":159000,"trial_index":4,"trial_type":"survey-likert","responses":"{\"Q0\":\"0\",\"Q1\":\"0\",\"Q2\":\"0\",\"Q3\":\"2\"}","rt":76877},{"participantID":"ufy53k0l4632wgqsjvlcp3basry03l37","judgmentIndices":[3,2,0,1],"questionScores":[null,null,null,null,null,null,null,null,null,null],"questionIndices":[5,21,28,35,24,23,13,29,2,12],"responseType":"finish","internal_node_id":"0.0-2.0-3.0","time_elapsed":177136,"trial_index":5,"trial_type":"survey-likert","responses":"{\"Q0\":\"3\",\"Q1\":\"4\",\"Q2\":\"4\",\"Q3\":\"3\"}","rt":17130},{"participantID":"ufy53k0l4632wgqsjvlcp3basry03l37","judgmentIndices":[3,2,0,1],"questionScores":[null,null,null,null,null,null,null,null,null,null],"questionIndices":[5,21,28,35,24,23,13,29,2,12],"responseType":"finish","internal_node_id":"0.0-2.0-4.0","time_elapsed":346182,"trial_index":6,"trial_type":"survey-likert","responses":"{\"Q0\":\"0\",\"Q1\":\"0\",\"Q2\":\"0\",\"Q3\":\"0\"}","rt":168041},{"participantID":"ufy53k0l4632wgqsjvlcp3basry03l37","judgmentIndices":[3,2,0,1],"questionScores":[null,null,null,null,null,null,null,null,null,null],"questionIndices":[5,21,28,35,24,23,13,29,2,12],"responseType":"finish","internal_node_id":"0.0-3.0","time_elapsed":365094,"trial_index":7,"trial_type":"survey-likert","responses":"{\"Q0\":\"2\",\"Q1\":\"3\",\"Q2\":\"5\",\"Q3\":\"1\",\"Q4\":\"6\"}","rt":17907},{"participantID":"ufy53k0l4632wgqsjvlcp3basry03l37","judgmentIndices":[3,2,0,1],"questionScores":[null,null,null,null,null,null,null,null,null,null],"questionIndices":[5,21,28,35,24,23,13,29,2,12],"responseType":"finish","internal_node_id":"0.0-4.0-0.0","time_elapsed":381018,"trial_index":8,"trial_type":"survey-likert","responses":"{\"Q0\":\"2\",\"Q1\":\"3\",\"Q2\":\"5\",\"Q3\":\"2\"}","rt":14917},{"participantID":"ufy53k0l4632wgqsjvlcp3basry03l37","judgmentIndices":[3,2,0,1],"questionScores":[null,null,null,null,null,null,null,null,null,null],"questionIndices":[5,21,28,35,24,23,13,29,2,12],"responseType":"finish","internal_node_id":"0.0-4.0-1.0","time_elapsed":401300,"trial_index":9,"trial_type":"survey-likert","responses":"{\"Q0\":\"5\",\"Q1\":\"6\",\"Q2\":\"6\",\"Q3\":\"4\"}","rt":19279},{"participantID":"ufy53k0l4632wgqsjvlcp3basry03l37","judgmentIndices":[3,2,0,1],"questionScores":[null,null,null,null,null,null,null,null,null,null],"questionIndices":[5,21,28,35,24,23,13,29,2,12],"responseType":"finish","internal_node_id":"0.0-4.0-2.0","time_elapsed":477083,"trial_index":10,"trial_type":"survey-likert","responses":"{\"Q0\":\"6\",\"Q1\":\"4\",\"Q2\":\"6\",\"Q3\":\"6\"}","rt":74778},{"participantID":"ufy53k0l4632wgqsjvlcp3basry03l37","judgmentIndices":[3,2,0,1],"questionScores":[null,null,null,null,null,null,null,null,null,null],"questionIndices":[5,21,28,35,24,23,13,29,2,12],"responseType":"finish","internal_node_id":"0.0-4.0-3.0","time_elapsed":491745,"trial_index":11,"trial_type":"survey-likert","responses":"{\"Q0\":\"4\",\"Q1\":\"4\",\"Q2\":\"6\",\"Q3\":\"3\"}","rt":13656}],"__v":0}
{"_id":{"$oid":"5cf48e01ec9a310004f56ccd"},"data":[{"participantID":"bdt4kl4sx7ue8ygrs9uzo2uwvhcwbkyj","judgmentIndices":[1,3,0,2],"questionScores":[null,null,null,null,null,null,null,null,null,null],"questionIndices":[19,24,29,13,45,40,21,3,6,2],"responseType":"finish","internal_node_id":"0.0-0.0","time_elapsed":44679,"trial_index":0,"trial_type":"survey-multi-choice","responses":"{\"Q0\":\"I consent to participate\"}","rt":44671},{"participantID":"bdt4kl4sx7ue8ygrs9uzo2uwvhcwbkyj","judgmentIndices":[1,3,0,2],"questionScores":[null,null,null,null,null,null,null,null,null,null],"questionIndices":[19,24,29,13,45,40,21,3,6,2],"responseType":"finish","internal_node_id":"0.0-1.0","time_elapsed":56995,"trial_index":1,"trial_type":"instructions","rt":11313,"view_history":"[{\"page_index\":0,\"viewing_time\":11313}]"},{"participantID":"bdt4kl4sx7ue8ygrs9uzo2uwvhcwbkyj","judgmentIndices":[1,3,0,2],"questionScores":[null,null,null,null,null,null,null,null,null,null],"questionIndices":[19,24,29,13,45,40,21,3,6,2],"responseType":"finish","internal_node_id":"0.0-2.0-0.0","time_elapsed":137340,"trial_index":2,"trial_type":"survey-likert","responses":"{\"Q0\":\"5\",\"Q1\":\"5\",\"Q2\":\"4\",\"Q3\":\"5\"}","rt":79335},{"participantID":"bdt4kl4sx7ue8ygrs9uzo2uwvhcwbkyj","judgmentIndices":[1,3,0,2],"questionScores":[null,null,null,null,null,null,null,null,null,null],"questionIndices":[19,24,29,13,45,40,21,3,6,2],"responseType":"finish","internal_node_id":"0.0-2.0-1.0","time_elapsed":186459,"trial_index":3,"trial_type":"survey-likert","responses":"{\"Q0\":\"4\",\"Q1\":\"5\",\"Q2\":\"5\",\"Q3\":\"4\"}","rt":48110},{"participantID":"bdt4kl4sx7ue8ygrs9uzo2uwvhcwbkyj","judgmentIndices":[1,3,0,2],"questionScores":[null,null,null,null,null,null,null,null,null,null],"questionIndices":[19,24,29,13,45,40,21,3,6,2],"responseType":"finish","internal_node_id":"0.0-2.0-2.0","time_elapsed":244609,"trial_index":4,"trial_type":"survey-likert","responses":"{\"Q0\":\"4\",\"Q1\":\"5\",\"Q2\":\"5\",\"Q3\":\"5\"}","rt":57142},{"participantID":"bdt4kl4sx7ue8ygrs9uzo2uwvhcwbkyj","judgmentIndices":[1,3,0,2],"questionScores":[null,null,null,null,null,null,null,null,null,null],"questionIndices":[19,24,29,13,45,40,21,3,6,2],"responseType":"finish","internal_node_id":"0.0-2.0-3.0","time_elapsed":284285,"trial_index":5,"trial_type":"survey-likert","responses":"{\"Q0\":\"3\",\"Q1\":\"5\",\"Q2\":\"4\",\"Q3\":\"5\"}","rt":38668},{"participantID":"bdt4kl4sx7ue8ygrs9uzo2uwvhcwbkyj","judgmentIndices":[1,3,0,2],"questionScores":[null,null,null,null,null,null,null,null,null,null],"questionIndices":[19,24,29,13,45,40,21,3,6,2],"responseType":"finish","internal_node_id":"0.0-2.0-4.0","time_elapsed":316587,"trial_index":6,"trial_type":"survey-likert","responses":"{\"Q0\":\"3\",\"Q1\":\"2\",\"Q2\":\"4\",\"Q3\":\"4\"}","rt":31294},{"participantID":"bdt4kl4sx7ue8ygrs9uzo2uwvhcwbkyj","judgmentIndices":[1,3,0,2],"questionScores":[null,null,null,null,null,null,null,null,null,null],"questionIndices":[19,24,29,13,45,40,21,3,6,2],"responseType":"finish","internal_node_id":"0.0-3.0","time_elapsed":372125,"trial_index":7,"trial_type":"survey-likert","responses":"{\"Q0\":\"5\",\"Q1\":\"4\",\"Q2\":\"5\",\"Q3\":\"2\",\"Q4\":\"6\"}","rt":54530},{"participantID":"bdt4kl4sx7ue8ygrs9uzo2uwvhcwbkyj","judgmentIndices":[1,3,0,2],"questionScores":[null,null,null,null,null,null,null,null,null,null],"questionIndices":[19,24,29,13,45,40,21,3,6,2],"responseType":"finish","internal_node_id":"0.0-4.0-0.0","time_elapsed":392761,"trial_index":8,"trial_type":"survey-likert","responses":"{\"Q0\":\"3\",\"Q1\":\"4\",\"Q2\":\"6\",\"Q3\":\"6\"}","rt":19629},{"participantID":"bdt4kl4sx7ue8ygrs9uzo2uwvhcwbkyj","judgmentIndices":[1,3,0,2],"questionScores":[null,null,null,null,null,null,null,null,null,null],"questionIndices":[19,24,29,13,45,40,21,3,6,2],"responseType":"finish","internal_node_id":"0.0-4.0-1.0","time_elapsed":407965,"trial_index":9,"trial_type":"survey-likert","responses":"{\"Q0\":\"4\",\"Q1\":\"5\",\"Q2\":\"5\",\"Q3\":\"5\"}","rt":14196},{"participantID":"bdt4kl4sx7ue8ygrs9uzo2uwvhcwbkyj","judgmentIndices":[1,3,0,2],"questionScores":[null,null,null,null,null,null,null,null,null,null],"questionIndices":[19,24,29,13,45,40,21,3,6,2],"responseType":"finish","internal_node_id":"0.0-4.0-2.0","time_elapsed":435197,"trial_index":10,"trial_type":"survey-likert","responses":"{\"Q0\":\"3\",\"Q1\":\"5\",\"Q2\":\"5\",\"Q3\":\"6\"}","rt":26225},{"participantID":"bdt4kl4sx7ue8ygrs9uzo2uwvhcwbkyj","judgmentIndices":[1,3,0,2],"questionScores":[null,null,null,null,null,null,null,null,null,null],"questionIndices":[19,24,29,13,45,40,21,3,6,2],"responseType":"finish","internal_node_id":"0.0-4.0-3.0","time_elapsed":461637,"trial_index":11,"trial_type":"survey-likert","responses":"{\"Q0\":\"4\",\"Q1\":\"5\",\"Q2\":\"4\",\"Q3\":\"4\"}","rt":25434}],"__v":0}
{"_id":{"$oid":"5cf490c8ec9a310004f56cce"},"data":[{"participantID":"jkpww2orn7hh0ykbc3tafkj6p3818am7","judgmentIndices":[3,1,0,2],"questionScores":[null,null,null,null,null,null,null,null,null,null],"questionIndices":[43,13,41,49,10,8,35,36,37,42],"responseType":"finish","internal_node_id":"0.0-0.0","time_elapsed":3480,"trial_index":0,"trial_type":"survey-multi-choice","responses":"{\"Q0\":\"I consent to participate\"}","rt":3464},{"participantID":"jkpww2orn7hh0ykbc3tafkj6p3818am7","judgmentIndices":[3,1,0,2],"questionScores":[null,null,null,null,null,null,null,null,null,null],"questionIndices":[43,13,41,49,10,8,35,36,37,42],"responseType":"finish","internal_node_id":"0.0-1.0","time_elapsed":5461,"trial_index":1,"trial_type":"instructions","rt":978,"view_history":"[{\"page_index\":0,\"viewing_time\":977}]"},{"participantID":"jkpww2orn7hh0ykbc3tafkj6p3818am7","judgmentIndices":[3,1,0,2],"questionScores":[null,null,null,null,null,null,null,null,null,null],"questionIndices":[43,13,41,49,10,8,35,36,37,42],"responseType":"finish","internal_node_id":"0.0-2.0-0.0","time_elapsed":22983,"trial_index":2,"trial_type":"survey-likert","responses":"{\"Q0\":\"4\",\"Q1\":\"0\",\"Q2\":\"3\",\"Q3\":\"4\"}","rt":16507},{"participantID":"jkpww2orn7hh0ykbc3tafkj6p3818am7","judgmentIndices":[3,1,0,2],"questionScores":[null,null,null,null,null,null,null,null,null,null],"questionIndices":[43,13,41,49,10,8,35,36,37,42],"responseType":"finish","internal_node_id":"0.0-2.0-1.0","time_elapsed":36264,"trial_index":3,"trial_type":"survey-likert","responses":"{\"Q0\":\"2\",\"Q1\":\"2\",\"Q2\":\"1\",\"Q3\":\"1\"}","rt":12267},{"participantID":"jkpww2orn7hh0ykbc3tafkj6p3818am7","judgmentIndices":[3,1,0,2],"questionScores":[null,null,null,null,null,null,null,null,null,null],"questionIndices":[43,13,41,49,10,8,35,36,37,42],"responseType":"finish","internal_node_id":"0.0-2.0-2.0","time_elapsed":49981,"trial_index":4,"trial_type":"survey-likert","responses":"{\"Q0\":\"1\",\"Q1\":\"0\",\"Q2\":\"2\",\"Q3\":\"1\"}","rt":12711},{"participantID":"jkpww2orn7hh0ykbc3tafkj6p3818am7","judgmentIndices":[3,1,0,2],"questionScores":[null,null,null,null,null,null,null,null,null,null],"questionIndices":[43,13,41,49,10,8,35,36,37,42],"responseType":"finish","internal_node_id":"0.0-2.0-3.0","time_elapsed":61980,"trial_index":5,"trial_type":"survey-likert","responses":"{\"Q0\":\"1\",\"Q1\":\"0\",\"Q2\":\"4\",\"Q3\":\"0\"}","rt":10987},{"participantID":"jkpww2orn7hh0ykbc3tafkj6p3818am7","judgmentIndices":[3,1,0,2],"questionScores":[null,null,null,null,null,null,null,null,null,null],"questionIndices":[43,13,41,49,10,8,35,36,37,42],"responseType":"finish","internal_node_id":"0.0-2.0-4.0","time_elapsed":69786,"trial_index":6,"trial_type":"survey-likert","responses":"{\"Q0\":\"0\",\"Q1\":\"0\",\"Q2\":\"0\",\"Q3\":\"0\"}","rt":6794},{"participantID":"jkpww2orn7hh0ykbc3tafkj6p3818am7","judgmentIndices":[3,1,0,2],"questionScores":[null,null,null,null,null,null,null,null,null,null],"questionIndices":[43,13,41,49,10,8,35,36,37,42],"responseType":"finish","internal_node_id":"0.0-3.0","time_elapsed":86963,"trial_index":7,"trial_type":"survey-likert","responses":"{\"Q0\":\"0\",\"Q1\":\"1\",\"Q2\":\"0\",\"Q3\":\"0\",\"Q4\":\"6\"}","rt":16161},{"participantID":"jkpww2orn7hh0ykbc3tafkj6p3818am7","judgmentIndices":[3,1,0,2],"questionScores":[null,null,null,null,null,null,null,null,null,null],"questionIndices":[43,13,41,49,10,8,35,36,37,42],"responseType":"finish","internal_node_id":"0.0-4.0-0.0","time_elapsed":98572,"trial_index":8,"trial_type":"survey-likert","responses":"{\"Q0\":\"1\",\"Q1\":\"0\",\"Q2\":\"0\",\"Q3\":\"1\"}","rt":10598},{"participantID":"jkpww2orn7hh0ykbc3tafkj6p3818am7","judgmentIndices":[3,1,0,2],"questionScores":[null,null,null,null,null,null,null,null,null,null],"questionIndices":[43,13,41,49,10,8,35,36,37,42],"responseType":"finish","internal_node_id":"0.0-4.0-1.0","time_elapsed":111935,"trial_index":9,"trial_type":"survey-likert","responses":"{\"Q0\":\"0\",\"Q1\":\"1\",\"Q2\":\"2\",\"Q3\":\"1\"}","rt":12350},{"participantID":"jkpww2orn7hh0ykbc3tafkj6p3818am7","judgmentIndices":[3,1,0,2],"questionScores":[null,null,null,null,null,null,null,null,null,null],"questionIndices":[43,13,41,49,10,8,35,36,37,42],"responseType":"finish","internal_node_id":"0.0-4.0-2.0","time_elapsed":124262,"trial_index":10,"trial_type":"survey-likert","responses":"{\"Q0\":\"2\",\"Q1\":\"2\",\"Q2\":\"4\",\"Q3\":\"2\"}","rt":11316},{"participantID":"jkpww2orn7hh0ykbc3tafkj6p3818am7","judgmentIndices":[3,1,0,2],"questionScores":[null,null,null,null,null,null,null,null,null,null],"questionIndices":[43,13,41,49,10,8,35,36,37,42],"responseType":"finish","internal_node_id":"0.0-4.0-3.0","time_elapsed":135626,"trial_index":11,"trial_type":"survey-likert","responses":"{\"Q0\":\"0\",\"Q1\":\"0\",\"Q2\":\"0\",\"Q3\":\"0\"}","rt":10352}],"__v":0}
{"_id":{"$oid":"5cf491afec9a310004f56ccf"},"data":[{"participantID":"y1cg178jhkgy9a1g0dbjd8s7qjafs4mf","judgmentIndices":[0,1,3,2],"questionScores":[null,null,null,null,null,null,null,null,null,null],"questionIndices":[40,41,19,3,2,13,25,47,45,5],"responseType":"finish","internal_node_id":"0.0-0.0","time_elapsed":4682,"trial_index":0,"trial_type":"survey-multi-choice","responses":"{\"Q0\":\"I consent to participate\"}","rt":4671},{"participantID":"y1cg178jhkgy9a1g0dbjd8s7qjafs4mf","judgmentIndices":[0,1,3,2],"questionScores":[null,null,null,null,null,null,null,null,null,null],"questionIndices":[40,41,19,3,2,13,25,47,45,5],"responseType":"finish","internal_node_id":"0.0-1.0","time_elapsed":8627,"trial_index":1,"trial_type":"instructions","rt":2943,"view_history":"[{\"page_index\":0,\"viewing_time\":2942}]"},{"participantID":"y1cg178jhkgy9a1g0dbjd8s7qjafs4mf","judgmentIndices":[0,1,3,2],"questionScores":[null,null,null,null,null,null,null,null,null,null],"questionIndices":[40,41,19,3,2,13,25,47,45,5],"responseType":"finish","internal_node_id":"0.0-2.0-0.0","time_elapsed":25668,"trial_index":2,"trial_type":"survey-likert","responses":"{\"Q0\":\"2\",\"Q1\":\"0\",\"Q2\":\"3\",\"Q3\":\"2\"}","rt":16034},{"participantID":"y1cg178jhkgy9a1g0dbjd8s7qjafs4mf","judgmentIndices":[0,1,3,2],"questionScores":[null,null,null,null,null,null,null,null,null,null],"questionIndices":[40,41,19,3,2,13,25,47,45,5],"responseType":"finish","internal_node_id":"0.0-2.0-1.0","time_elapsed":40286,"trial_index":3,"trial_type":"survey-likert","responses":"{\"Q0\":\"0\",\"Q1\":\"0\",\"Q2\":\"0\",\"Q3\":\"0\"}","rt":13612},{"participantID":"y1cg178jhkgy9a1g0dbjd8s7qjafs4mf","judgmentIndices":[0,1,3,2],"questionScores":[null,null,null,null,null,null,null,null,null,null],"questionIndices":[40,41,19,3,2,13,25,47,45,5],"responseType":"finish","internal_node_id":"0.0-2.0-2.0","time_elapsed":52670,"trial_index":4,"trial_type":"survey-likert","responses":"{\"Q0\":\"0\",\"Q1\":\"0\",\"Q2\":\"0\",\"Q3\":\"0\"}","rt":11379},{"participantID":"y1cg178jhkgy9a1g0dbjd8s7qjafs4mf","judgmentIndices":[0,1,3,2],"questionScores":[null,null,null,null,null,null,null,null,null,null],"questionIndices":[40,41,19,3,2,13,25,47,45,5],"responseType":"finish","internal_node_id":"0.0-2.0-3.0","time_elapsed":68512,"trial_index":5,"trial_type":"survey-likert","responses":"{\"Q0\":\"3\",\"Q1\":\"0\",\"Q2\":\"1\",\"Q3\":\"1\"}","rt":14836},{"participantID":"y1cg178jhkgy9a1g0dbjd8s7qjafs4mf","judgmentIndices":[0,1,3,2],"questionScores":[null,null,null,null,null,null,null,null,null,null],"questionIndices":[40,41,19,3,2,13,25,47,45,5],"responseType":"finish","internal_node_id":"0.0-2.0-4.0","time_elapsed":86292,"trial_index":6,"trial_type":"survey-likert","responses":"{\"Q0\":\"5\",\"Q1\":\"2\",\"Q2\":\"0\",\"Q3\":\"0\"}","rt":16777},{"participantID":"y1cg178jhkgy9a1g0dbjd8s7qjafs4mf","judgmentIndices":[0,1,3,2],"questionScores":[null,null,null,null,null,null,null,null,null,null],"questionIndices":[40,41,19,3,2,13,25,47,45,5],"responseType":"finish","internal_node_id":"0.0-3.0","time_elapsed":107462,"trial_index":7,"trial_type":"survey-likert","responses":"{\"Q0\":\"0\",\"Q1\":\"6\",\"Q2\":\"0\",\"Q3\":\"0\",\"Q4\":\"6\"}","rt":20163},{"participantID":"y1cg178jhkgy9a1g0dbjd8s7qjafs4mf","judgmentIndices":[0,1,3,2],"questionScores":[null,null,null,null,null,null,null,null,null,null],"questionIndices":[40,41,19,3,2,13,25,47,45,5],"responseType":"finish","internal_node_id":"0.0-4.0-0.0","time_elapsed":125944,"trial_index":8,"trial_type":"survey-likert","responses":"{\"Q0\":\"3\",\"Q1\":\"1\",\"Q2\":\"0\",\"Q3\":\"1\"}","rt":17476},{"participantID":"y1cg178jhkgy9a1g0dbjd8s7qjafs4mf","judgmentIndices":[0,1,3,2],"questionScores":[null,null,null,null,null,null,null,null,null,null],"questionIndices":[40,41,19,3,2,13,25,47,45,5],"responseType":"finish","internal_node_id":"0.0-4.0-1.0","time_elapsed":143180,"trial_index":9,"trial_type":"survey-likert","responses":"{\"Q0\":\"2\",\"Q1\":\"6\",\"Q2\":\"0\",\"Q3\":\"2\"}","rt":16230},{"participantID":"y1cg178jhkgy9a1g0dbjd8s7qjafs4mf","judgmentIndices":[0,1,3,2],"questionScores":[null,null,null,null,null,null,null,null,null,null],"questionIndices":[40,41,19,3,2,13,25,47,45,5],"responseType":"finish","internal_node_id":"0.0-4.0-2.0","time_elapsed":154885,"trial_index":10,"trial_type":"survey-likert","responses":"{\"Q0\":\"0\",\"Q1\":\"0\",\"Q2\":\"0\",\"Q3\":\"0\"}","rt":10699},{"participantID":"y1cg178jhkgy9a1g0dbjd8s7qjafs4mf","judgmentIndices":[0,1,3,2],"questionScores":[null,null,null,null,null,null,null,null,null,null],"questionIndices":[40,41,19,3,2,13,25,47,45,5],"responseType":"finish","internal_node_id":"0.0-4.0-3.0","time_elapsed":165703,"trial_index":11,"trial_type":"survey-likert","responses":"{\"Q0\":\"0\",\"Q1\":\"0\",\"Q2\":\"0\",\"Q3\":\"0\"}","rt":9812}],"__v":0}
{"_id":{"$oid":"5cf49886ec9a310004f56cd0"},"data":[{"participantID":"wpgdpbj2kbw5wazcxzjn2e11ts1usb23","judgmentIndices":[0,2,1,3],"questionScores":[null,null,null,null,null,null,null,null,null,null],"questionIndices":[18,5,34,22,11,35,4,12,40,24],"responseType":"finish","internal_node_id":"0.0-0.0","time_elapsed":22434,"trial_index":0,"trial_type":"survey-multi-choice","responses":"{\"Q0\":\"I consent to participate\"}","rt":22390},{"participantID":"wpgdpbj2kbw5wazcxzjn2e11ts1usb23","judgmentIndices":[0,2,1,3],"questionScores":[null,null,null,null,null,null,null,null,null,null],"questionIndices":[18,5,34,22,11,35,4,12,40,24],"responseType":"finish","internal_node_id":"0.0-1.0","time_elapsed":28473,"trial_index":1,"trial_type":"instructions","rt":5030,"view_history":"[{\"page_index\":0,\"viewing_time\":5029}]"},{"participantID":"wpgdpbj2kbw5wazcxzjn2e11ts1usb23","judgmentIndices":[0,2,1,3],"questionScores":[null,null,null,null,null,null,null,null,null,null],"questionIndices":[18,5,34,22,11,35,4,12,40,24],"responseType":"finish","internal_node_id":"0.0-2.0-0.0","time_elapsed":46698,"trial_index":2,"trial_type":"survey-likert","responses":"{\"Q0\":\"5\",\"Q1\":\"5\",\"Q2\":\"1\",\"Q3\":\"1\"}","rt":17208},{"participantID":"wpgdpbj2kbw5wazcxzjn2e11ts1usb23","judgmentIndices":[0,2,1,3],"questionScores":[null,null,null,null,null,null,null,null,null,null],"questionIndices":[18,5,34,22,11,35,4,12,40,24],"responseType":"finish","internal_node_id":"0.0-2.0-1.0","time_elapsed":59253,"trial_index":3,"trial_type":"survey-likert","responses":"{\"Q0\":\"5\",\"Q1\":\"5\",\"Q2\":\"0\",\"Q3\":\"1\"}","rt":11542},{"participantID":"wpgdpbj2kbw5wazcxzjn2e11ts1usb23","judgmentIndices":[0,2,1,3],"questionScores":[null,null,null,null,null,null,null,null,null,null],"questionIndices":[18,5,34,22,11,35,4,12,40,24],"responseType":"finish","internal_node_id":"0.0-2.0-2.0","time_elapsed":80769,"trial_index":4,"trial_type":"survey-likert","responses":"{\"Q0\":\"1\",\"Q1\":\"3\",\"Q2\":\"3\",\"Q3\":\"2\"}","rt":20503},{"participantID":"wpgdpbj2kbw5wazcxzjn2e11ts1usb23","judgmentIndices":[0,2,1,3],"questionScores":[null,null,null,null,null,null,null,null,null,null],"questionIndices":[18,5,34,22,11,35,4,12,40,24],"responseType":"finish","internal_node_id":"0.0-2.0-3.0","time_elapsed":97069,"trial_index":5,"trial_type":"survey-likert","responses":"{\"Q0\":\"5\",\"Q1\":\"2\",\"Q2\":\"1\",\"Q3\":\"0\"}","rt":15286},{"participantID":"wpgdpbj2kbw5wazcxzjn2e11ts1usb23","judgmentIndices":[0,2,1,3],"questionScores":[null,null,null,null,null,null,null,null,null,null],"questionIndices":[18,5,34,22,11,35,4,12,40,24],"responseType":"finish","internal_node_id":"0.0-2.0-4.0","time_elapsed":110967,"trial_index":6,"trial_type":"survey-likert","responses":"{\"Q0\":\"1\",\"Q1\":\"2\",\"Q2\":\"5\",\"Q3\":\"0\"}","rt":12886},{"participantID":"wpgdpbj2kbw5wazcxzjn2e11ts1usb23","judgmentIndices":[0,2,1,3],"questionScores":[null,null,null,null,null,null,null,null,null,null],"questionIndices":[18,5,34,22,11,35,4,12,40,24],"responseType":"finish","internal_node_id":"0.0-3.0","time_elapsed":135694,"trial_index":7,"trial_type":"survey-likert","responses":"{\"Q0\":\"1\",\"Q1\":\"1\",\"Q2\":\"1\",\"Q3\":\"2\",\"Q4\":\"6\"}","rt":23711},{"participantID":"wpgdpbj2kbw5wazcxzjn2e11ts1usb23","judgmentIndices":[0,2,1,3],"questionScores":[null,null,null,null,null,null,null,null,null,null],"questionIndices":[18,5,34,22,11,35,4,12,40,24],"responseType":"finish","internal_node_id":"0.0-4.0-0.0","time_elapsed":150903,"trial_index":8,"trial_type":"survey-likert","responses":"{\"Q0\":\"0\",\"Q1\":\"4\",\"Q2\":\"6\",\"Q3\":\"0\"}","rt":14195},{"participantID":"wpgdpbj2kbw5wazcxzjn2e11ts1usb23","judgmentIndices":[0,2,1,3],"questionScores":[null,null,null,null,null,null,null,null,null,null],"questionIndices":[18,5,34,22,11,35,4,12,40,24],"responseType":"finish","internal_node_id":"0.0-4.0-1.0","time_elapsed":164252,"trial_index":9,"trial_type":"survey-likert","responses":"{\"Q0\":\"3\",\"Q1\":\"3\",\"Q2\":\"0\",\"Q3\":\"2\"}","rt":12337},{"participantID":"wpgdpbj2kbw5wazcxzjn2e11ts1usb23","judgmentIndices":[0,2,1,3],"questionScores":[null,null,null,null,null,null,null,null,null,null],"questionIndices":[18,5,34,22,11,35,4,12,40,24],"responseType":"finish","internal_node_id":"0.0-4.0-2.0","time_elapsed":178181,"trial_index":10,"trial_type":"survey-likert","responses":"{\"Q0\":\"0\",\"Q1\":\"0\",\"Q2\":\"0\",\"Q3\":\"2\"}","rt":12916},{"participantID":"wpgdpbj2kbw5wazcxzjn2e11ts1usb23","judgmentIndices":[0,2,1,3],"questionScores":[null,null,null,null,null,null,null,null,null,null],"questionIndices":[18,5,34,22,11,35,4,12,40,24],"responseType":"finish","internal_node_id":"0.0-4.0-3.0","time_elapsed":219402,"trial_index":11,"trial_type":"survey-likert","responses":"{\"Q0\":\"0\",\"Q1\":\"0\",\"Q2\":\"0\",\"Q3\":\"0\"}","rt":39584}],"__v":0}
