{"_id":{"$oid":"5a638e30cafab600042a66b8"},"data":[{"questionScores":[2420,27,2420,32,2405,45,41,2396,31,2406],"questionIndicies":[38,0,8,7,14,30,13,49,12,31],"judgmentIndicies":[1,6,3,0,5,2,4],"internal_node_id":"0.0-0.0","time_elapsed":7060,"trial_index":0,"trial_type":"survey-multi-choice","responses":"{\"Q0\":\"I consent to participate\"}","rt":7036},{"questionScores":[2420,27,2420,32,2405,45,41,2396,31,2406],"questionIndicies":[38,0,8,7,14,30,13,49,12,31],"judgmentIndicies":[1,6,3,0,5,2,4],"internal_node_id":"0.0-1.0","time_elapsed":9368,"trial_index":1,"trial_type":"instructions","rt":1305,"view_history":"[{\"page_index\":0,\"viewing_time\":1304}]"},{"questionScores":[2420,27,2420,32,2405,45,41,2396,31,2406],"questionIndicies":[38,0,8,7,14,30,13,49,12,31],"judgmentIndicies":[1,6,3,0,5,2,4],"internal_node_id":"0.0-2.0-0.0","time_elapsed":27196,"trial_index":2,"trial_type":"survey-likert","responses":"{\"Q0\":\"3\",\"Q1\":\"2\",\"Q2\":\"1\",\"Q3\":\"3\",\"Q4\":\"4\",\"Q5\":\"2\",\"Q6\":\"3\"}","rt":16809},{"questionScores":[2420,27,2420,32,2405,45,41,2396,31,2406],"questionIndicies":[38,0,8,7,14,30,13,49,12,31],"judgmentIndicies":[1,6,3,0,5,2,4],"internal_node_id":"0.0-2.0-1.0","time_elapsed":40421,"trial_index":3,"trial_type":"survey-likert","responses":"{\"Q0\":\"4\",\"Q1\":\"2\",\"Q2\":\"5\",\"Q3\":\"4\",\"Q4\":\"2\",\"Q5\":\"3\",\"Q6\":\"2\"}","rt":12205},{"questionScores":[2420,27,2420,32,2405,45,41,2396,31,2406],"questionIndicies":[38,0,8,7,14,30,13,49,12,31],"judgmentIndicies":[1,6,3,0,5,2,4],"internal_node_id":"0.0-2.0-2.0","time_elapsed":55233,"trial_index":4,"trial_type":"survey-likert","responses":"{\"Q0\":\"2\",\"Q1\":\"4\",\"Q2\":\"5\",\"Q3\":\"2\",\"Q4\":\"3\",\"Q5\":\"2\",\"Q6\":\"4\"}","rt":13804},{"questionScores":[2420,27,2420,32,2405,45,41,2396,31,2406],"questionIndicies":[38,0,8,7,14,30,13,49,12,31],"judgmentIndicies":[1,6,3,0,5,2,4],"internal_node_id":"0.0-2.0-3.0","time_elapsed":68225,"trial_index":5,"trial_type":"survey-likert","responses":"{\"Q0\":\"2\",\"Q1\":\"1\",\"Q2\":\"2\",\"Q3\":\"4\",\"Q4\":\"5\",\"Q5\":\"4\",\"Q6\":\"4\"}","rt":11983},{"questionScores":[2420,27,2420,32,2405,45,41,2396,31,2406],"questionIndicies":[38,0,8,7,14,30,13,49,12,31],"judgmentIndicies":[1,6,3,0,5,2,4],"internal_node_id":"0.0-2.0-4.0","time_elapsed":79799,"trial_index":6,"trial_type":"survey-likert","responses":"{\"Q0\":\"2\",\"Q1\":\"4\",\"Q2\":\"3\",\"Q3\":\"4\",\"Q4\":\"2\",\"Q5\":\"1\",\"Q6\":\"2\"}","rt":10561},{"questionScores":[2420,27,2420,32,2405,45,41,2396,31,2406],"questionIndicies":[38,0,8,7,14,30,13,49,12,31],"judgmentIndicies":[1,6,3,0,5,2,4],"internal_node_id":"0.0-2.0-5.0","time_elapsed":92270,"trial_index":7,"trial_type":"survey-likert","responses":"{\"Q0\":\"2\",\"Q1\":\"1\",\"Q2\":\"5\",\"Q3\":\"4\",\"Q4\":\"4\",\"Q5\":\"2\",\"Q6\":\"2\"}","rt":11457},{"questionScores":[2420,27,2420,32,2405,45,41,2396,31,2406],"questionIndicies":[38,0,8,7,14,30,13,49,12,31],"judgmentIndicies":[1,6,3,0,5,2,4],"internal_node_id":"0.0-2.0-6.0","time_elapsed":105315,"trial_index":8,"trial_type":"survey-likert","responses":"{\"Q0\":\"2\",\"Q1\":\"4\",\"Q2\":\"5\",\"Q3\":\"4\",\"Q4\":\"3\",\"Q5\":\"4\",\"Q6\":\"2\"}","rt":12035},{"questionScores":[2420,27,2420,32,2405,45,41,2396,31,2406],"questionIndicies":[38,0,8,7,14,30,13,49,12,31],"judgmentIndicies":[1,6,3,0,5,2,4],"internal_node_id":"0.0-2.0-7.0","time_elapsed":118000,"trial_index":9,"trial_type":"survey-likert","responses":"{\"Q0\":\"2\",\"Q1\":\"1\",\"Q2\":\"4\",\"Q3\":\"5\",\"Q4\":\"4\",\"Q5\":\"2\",\"Q6\":\"2\"}","rt":11679},{"questionScores":[2420,27,2420,32,2405,45,41,2396,31,2406],"questionIndicies":[38,0,8,7,14,30,13,49,12,31],"judgmentIndicies":[1,6,3,0,5,2,4],"internal_node_id":"0.0-2.0-8.0","time_elapsed":134514,"trial_index":10,"trial_type":"survey-likert","responses":"{\"Q0\":\"3\",\"Q1\":\"1\",\"Q2\":\"2\",\"Q3\":\"4\",\"Q4\":\"3\",\"Q5\":\"4\",\"Q6\":\"3\"}","rt":14127},{"questionScores":[2420,27,2420,32,2405,45,41,2396,31,2406],"questionIndicies":[38,0,8,7,14,30,13,49,12,31],"judgmentIndicies":[1,6,3,0,5,2,4],"internal_node_id":"0.0-2.0-9.0","time_elapsed":146717,"trial_index":11,"trial_type":"survey-likert","responses":"{\"Q0\":\"2\",\"Q1\":\"4\",\"Q2\":\"4\",\"Q3\":\"2\",\"Q4\":\"3\",\"Q5\":\"2\",\"Q6\":\"1\"}","rt":11193},{"questionScores":[2420,27,2420,32,2405,45,41,2396,31,2406],"questionIndicies":[38,0,8,7,14,30,13,49,12,31],"judgmentIndicies":[1,6,3,0,5,2,4],"internal_node_id":"0.0-3.0","time_elapsed":149967,"trial_index":12,"trial_type":"instructions","rt":2248,"view_history":"[{\"page_index\":0,\"viewing_time\":2247}]"},{"questionScores":[2420,27,2420,32,2405,45,41,2396,31,2406],"questionIndicies":[38,0,8,7,14,30,13,49,12,31],"judgmentIndicies":[1,6,3,0,5,2,4],"internal_node_id":"0.0-4.0","time_elapsed":171853,"trial_index":13,"trial_type":"survey-multi-choose","responses":"{\"Q0\":\"Reveal Answer\",\"Q1\":\"Reveal Answer\",\"Q2\":\"Reveal Answer\",\"Q3\":\"Reveal Answer\",\"Q4\":\"Reveal Answer\",\"Q5\":\"Keep Hidden\",\"Q6\":\"Keep Hidden\",\"Q7\":\"Keep Hidden\",\"Q8\":\"Keep Hidden\",\"Q9\":\"Keep Hidden\"}","rt":20858},{"questionScores":[2420,27,2420,32,2405,45,41,2396,31,2406],"questionIndicies":[38,0,8,7,14,30,13,49,12,31],"judgmentIndicies":[1,6,3,0,5,2,4],"internal_node_id":"0.0-5.0","time_elapsed":175960,"trial_index":14,"trial_type":"instructions","rt":3087,"view_history":"[{\"page_index\":0,\"viewing_time\":3085}]"}],"__v":0}
{"_id":{"$oid":"5a638e38cafab600042a66b9"},"data":[{"questionScores":[2415,20,30,27,24,2393,33,2416,2401,2404],"questionIndicies":[21,16,7,49,14,37,10,27,6,45],"judgmentIndicies":[2,0,1,4,3,5,6],"internal_node_id":"0.0-0.0","time_elapsed":6239,"trial_index":0,"trial_type":"survey-multi-choice","responses":"{\"Q0\":\"I consent to participate\"}","rt":6223},{"questionScores":[2415,20,30,27,24,2393,33,2416,2401,2404],"questionIndicies":[21,16,7,49,14,37,10,27,6,45],"judgmentIndicies":[2,0,1,4,3,5,6],"internal_node_id":"0.0-1.0","time_elapsed":8156,"trial_index":1,"trial_type":"instructions","rt":910,"view_history":"[{\"page_index\":0,\"viewing_time\":903}]"},{"questionScores":[2415,20,30,27,24,2393,33,2416,2401,2404],"questionIndicies":[21,16,7,49,14,37,10,27,6,45],"judgmentIndicies":[2,0,1,4,3,5,6],"internal_node_id":"0.0-2.0-0.0","time_elapsed":17037,"trial_index":2,"trial_type":"survey-likert","responses":"{\"Q0\":\"3\",\"Q1\":\"3\",\"Q2\":\"3\",\"Q3\":\"3\",\"Q4\":\"3\",\"Q5\":\"3\",\"Q6\":\"4\"}","rt":7851},{"questionScores":[2415,20,30,27,24,2393,33,2416,2401,2404],"questionIndicies":[21,16,7,49,14,37,10,27,6,45],"judgmentIndicies":[2,0,1,4,3,5,6],"internal_node_id":"0.0-2.0-1.0","time_elapsed":26532,"trial_index":3,"trial_type":"survey-likert","responses":"{\"Q0\":\"3\",\"Q1\":\"3\",\"Q2\":\"3\",\"Q3\":\"3\",\"Q4\":\"3\",\"Q5\":\"3\",\"Q6\":\"3\"}","rt":8465},{"questionScores":[2415,20,30,27,24,2393,33,2416,2401,2404],"questionIndicies":[21,16,7,49,14,37,10,27,6,45],"judgmentIndicies":[2,0,1,4,3,5,6],"internal_node_id":"0.0-2.0-2.0","time_elapsed":36414,"trial_index":4,"trial_type":"survey-likert","responses":"{\"Q0\":\"3\",\"Q1\":\"3\",\"Q2\":\"3\",\"Q3\":\"3\",\"Q4\":\"3\",\"Q5\":\"3\",\"Q6\":\"3\"}","rt":8853},{"questionScores":[2415,20,30,27,24,2393,33,2416,2401,2404],"questionIndicies":[21,16,7,49,14,37,10,27,6,45],"judgmentIndicies":[2,0,1,4,3,5,6],"internal_node_id":"0.0-2.0-3.0","time_elapsed":49333,"trial_index":5,"trial_type":"survey-likert","responses":"{\"Q0\":\"3\",\"Q1\":\"3\",\"Q2\":\"3\",\"Q3\":\"3\",\"Q4\":\"3\",\"Q5\":\"3\",\"Q6\":\"3\"}","rt":11889},{"questionScores":[2415,20,30,27,24,2393,33,2416,2401,2404],"questionIndicies":[21,16,7,49,14,37,10,27,6,45],"judgmentIndicies":[2,0,1,4,3,5,6],"internal_node_id":"0.0-2.0-4.0","time_elapsed":59511,"trial_index":6,"trial_type":"survey-likert","responses":"{\"Q0\":\"3\",\"Q1\":\"3\",\"Q2\":\"3\",\"Q3\":\"3\",\"Q4\":\"3\",\"Q5\":\"3\",\"Q6\":\"3\"}","rt":9050},{"questionScores":[2415,20,30,27,24,2393,33,2416,2401,2404],"questionIndicies":[21,16,7,49,14,37,10,27,6,45],"judgmentIndicies":[2,0,1,4,3,5,6],"internal_node_id":"0.0-2.0-5.0","time_elapsed":70333,"trial_index":7,"trial_type":"survey-likert","responses":"{\"Q0\":\"3\",\"Q1\":\"3\",\"Q2\":\"3\",\"Q3\":\"3\",\"Q4\":\"3\",\"Q5\":\"3\",\"Q6\":\"3\"}","rt":9793},{"questionScores":[2415,20,30,27,24,2393,33,2416,2401,2404],"questionIndicies":[21,16,7,49,14,37,10,27,6,45],"judgmentIndicies":[2,0,1,4,3,5,6],"internal_node_id":"0.0-2.0-6.0","time_elapsed":82130,"trial_index":8,"trial_type":"survey-likert","responses":"{\"Q0\":\"3\",\"Q1\":\"3\",\"Q2\":\"3\",\"Q3\":\"3\",\"Q4\":\"3\",\"Q5\":\"4\",\"Q6\":\"3\"}","rt":10768},{"questionScores":[2415,20,30,27,24,2393,33,2416,2401,2404],"questionIndicies":[21,16,7,49,14,37,10,27,6,45],"judgmentIndicies":[2,0,1,4,3,5,6],"internal_node_id":"0.0-2.0-7.0","time_elapsed":106210,"trial_index":9,"trial_type":"survey-likert","responses":"{\"Q0\":\"3\",\"Q1\":\"3\",\"Q2\":\"3\",\"Q3\":\"3\",\"Q4\":\"3\",\"Q5\":\"3\",\"Q6\":\"3\"}","rt":23044},{"questionScores":[2415,20,30,27,24,2393,33,2416,2401,2404],"questionIndicies":[21,16,7,49,14,37,10,27,6,45],"judgmentIndicies":[2,0,1,4,3,5,6],"internal_node_id":"0.0-2.0-8.0","time_elapsed":116480,"trial_index":10,"trial_type":"survey-likert","responses":"{\"Q0\":\"3\",\"Q1\":\"3\",\"Q2\":\"3\",\"Q3\":\"3\",\"Q4\":\"3\",\"Q5\":\"3\",\"Q6\":\"3\"}","rt":9236},{"questionScores":[2415,20,30,27,24,2393,33,2416,2401,2404],"questionIndicies":[21,16,7,49,14,37,10,27,6,45],"judgmentIndicies":[2,0,1,4,3,5,6],"internal_node_id":"0.0-2.0-9.0","time_elapsed":126251,"trial_index":11,"trial_type":"survey-likert","responses":"{\"Q0\":\"3\",\"Q1\":\"3\",\"Q2\":\"3\",\"Q3\":\"4\",\"Q4\":\"3\",\"Q5\":\"3\",\"Q6\":\"3\"}","rt":8744},{"questionScores":[2415,20,30,27,24,2393,33,2416,2401,2404],"questionIndicies":[21,16,7,49,14,37,10,27,6,45],"judgmentIndicies":[2,0,1,4,3,5,6],"internal_node_id":"0.0-3.0","time_elapsed":129123,"trial_index":12,"trial_type":"instructions","rt":1871,"view_history":"[{\"page_index\":0,\"viewing_time\":1870}]"},{"questionScores":[2415,20,30,27,24,2393,33,2416,2401,2404],"questionIndicies":[21,16,7,49,14,37,10,27,6,45],"judgmentIndicies":[2,0,1,4,3,5,6],"internal_node_id":"0.0-4.0","time_elapsed":156939,"trial_index":13,"trial_type":"survey-multi-choose","responses":"{\"Q0\":\"Keep Hidden\",\"Q1\":\"Keep Hidden\",\"Q2\":\"Keep Hidden\",\"Q3\":\"Keep Hidden\",\"Q4\":\"Keep Hidden\",\"Q5\":\"Reveal Answer\",\"Q6\":\"Reveal Answer\",\"Q7\":\"Reveal Answer\",\"Q8\":\"Reveal Answer\",\"Q9\":\"Reveal Answer\"}","rt":26741},{"questionScores":[2415,20,30,27,24,2393,33,2416,2401,2404],"questionIndicies":[21,16,7,49,14,37,10,27,6,45],"judgmentIndicies":[2,0,1,4,3,5,6],"internal_node_id":"0.0-5.0","time_elapsed":161765,"trial_index":14,"trial_type":"instructions","rt":3763,"view_history":"[{\"page_index\":0,\"viewing_time\":3762}]"}],"__v":0}
{"_id":{"$oid":"5a638e49cafab600042a66ba"},"data":[{"questionScores":[2400,2412,29,14,2405,2403,30,15,22,2400],"questionIndicies":[31,29,5,27,39,35,7,21,0,11],"judgmentIndicies":[2,4,1,6,0,3,5],"internal_node_id":"0.0-0.0","time_elapsed":5294,"trial_index":0,"trial_type":"survey-multi-choice","responses":"{\"Q0\":\"I consent to participate\"}","rt":5271},{"questionScores":[2400,2412,29,14,2405,2403,30,15,22,2400],"questionIndicies":[31,29,5,27,39,35,7,21,0,11],"judgmentIndicies":[2,4,1,6,0,3,5],"internal_node_id":"0.0-1.0","time_elapsed":7992,"trial_index":1,"trial_type":"instructions","rt":1696,"view_history":"[{\"page_index\":0,\"viewing_time\":1695}]"},{"questionScores":[2400,2412,29,14,2405,2403,30,15,22,2400],"questionIndicies":[31,29,5,27,39,35,7,21,0,11],"judgmentIndicies":[2,4,1,6,0,3,5],"internal_node_id":"0.0-2.0-0.0","time_elapsed":26253,"trial_index":2,"trial_type":"survey-likert","responses":"{\"Q0\":\"3\",\"Q1\":\"5\",\"Q2\":\"1\",\"Q3\":\"2\",\"Q4\":\"4\",\"Q5\":\"3\",\"Q6\":\"2\"}","rt":17248},{"questionScores":[2400,2412,29,14,2405,2403,30,15,22,2400],"questionIndicies":[31,29,5,27,39,35,7,21,0,11],"judgmentIndicies":[2,4,1,6,0,3,5],"internal_node_id":"0.0-2.0-1.0","time_elapsed":38915,"trial_index":3,"trial_type":"survey-likert","responses":"{\"Q0\":\"4\",\"Q1\":\"4\",\"Q2\":\"2\",\"Q3\":\"4\",\"Q4\":\"4\",\"Q5\":\"4\",\"Q6\":\"4\"}","rt":11652},{"questionScores":[2400,2412,29,14,2405,2403,30,15,22,2400],"questionIndicies":[31,29,5,27,39,35,7,21,0,11],"judgmentIndicies":[2,4,1,6,0,3,5],"internal_node_id":"0.0-2.0-2.0","time_elapsed":53650,"trial_index":4,"trial_type":"survey-likert","responses":"{\"Q0\":\"4\",\"Q1\":\"4\",\"Q2\":\"2\",\"Q3\":\"4\",\"Q4\":\"4\",\"Q5\":\"4\",\"Q6\":\"5\"}","rt":13724},{"questionScores":[2400,2412,29,14,2405,2403,30,15,22,2400],"questionIndicies":[31,29,5,27,39,35,7,21,0,11],"judgmentIndicies":[2,4,1,6,0,3,5],"internal_node_id":"0.0-2.0-3.0","time_elapsed":66435,"trial_index":5,"trial_type":"survey-likert","responses":"{\"Q0\":\"3\",\"Q1\":\"2\",\"Q2\":\"2\",\"Q3\":\"3\",\"Q4\":\"4\",\"Q5\":\"5\",\"Q6\":\"4\"}","rt":11777},{"questionScores":[2400,2412,29,14,2405,2403,30,15,22,2400],"questionIndicies":[31,29,5,27,39,35,7,21,0,11],"judgmentIndicies":[2,4,1,6,0,3,5],"internal_node_id":"0.0-2.0-4.0","time_elapsed":78383,"trial_index":6,"trial_type":"survey-likert","responses":"{\"Q0\":\"3\",\"Q1\":\"4\",\"Q2\":\"3\",\"Q3\":\"4\",\"Q4\":\"4\",\"Q5\":\"4\",\"Q6\":\"5\"}","rt":10935},{"questionScores":[2400,2412,29,14,2405,2403,30,15,22,2400],"questionIndicies":[31,29,5,27,39,35,7,21,0,11],"judgmentIndicies":[2,4,1,6,0,3,5],"internal_node_id":"0.0-2.0-5.0","time_elapsed":91314,"trial_index":7,"trial_type":"survey-likert","responses":"{\"Q0\":\"1\",\"Q1\":\"3\",\"Q2\":\"1\",\"Q3\":\"1\",\"Q4\":\"1\",\"Q5\":\"3\",\"Q6\":\"3\"}","rt":11923},{"questionScores":[2400,2412,29,14,2405,2403,30,15,22,2400],"questionIndicies":[31,29,5,27,39,35,7,21,0,11],"judgmentIndicies":[2,4,1,6,0,3,5],"internal_node_id":"0.0-2.0-6.0","time_elapsed":105967,"trial_index":8,"trial_type":"survey-likert","responses":"{\"Q0\":\"1\",\"Q1\":\"1\",\"Q2\":\"2\",\"Q3\":\"1\",\"Q4\":\"1\",\"Q5\":\"1\",\"Q6\":\"1\"}","rt":13644},{"questionScores":[2400,2412,29,14,2405,2403,30,15,22,2400],"questionIndicies":[31,29,5,27,39,35,7,21,0,11],"judgmentIndicies":[2,4,1,6,0,3,5],"internal_node_id":"0.0-2.0-7.0","time_elapsed":117898,"trial_index":9,"trial_type":"survey-likert","responses":"{\"Q0\":\"3\",\"Q1\":\"4\",\"Q2\":\"2\",\"Q3\":\"3\",\"Q4\":\"3\",\"Q5\":\"2\",\"Q6\":\"2\"}","rt":10919},{"questionScores":[2400,2412,29,14,2405,2403,30,15,22,2400],"questionIndicies":[31,29,5,27,39,35,7,21,0,11],"judgmentIndicies":[2,4,1,6,0,3,5],"internal_node_id":"0.0-2.0-8.0","time_elapsed":131826,"trial_index":10,"trial_type":"survey-likert","responses":"{\"Q0\":\"3\",\"Q1\":\"3\",\"Q2\":\"2\",\"Q3\":\"2\",\"Q4\":\"2\",\"Q5\":\"3\",\"Q6\":\"1\"}","rt":12917},{"questionScores":[2400,2412,29,14,2405,2403,30,15,22,2400],"questionIndicies":[31,29,5,27,39,35,7,21,0,11],"judgmentIndicies":[2,4,1,6,0,3,5],"internal_node_id":"0.0-2.0-9.0","time_elapsed":143551,"trial_index":11,"trial_type":"survey-likert","responses":"{\"Q0\":\"4\",\"Q1\":\"3\",\"Q2\":\"3\",\"Q3\":\"4\",\"Q4\":\"2\",\"Q5\":\"2\",\"Q6\":\"2\"}","rt":10714},{"questionScores":[2400,2412,29,14,2405,2403,30,15,22,2400],"questionIndicies":[31,29,5,27,39,35,7,21,0,11],"judgmentIndicies":[2,4,1,6,0,3,5],"internal_node_id":"0.0-3.0","time_elapsed":147855,"trial_index":12,"trial_type":"instructions","rt":3303,"view_history":"[{\"page_index\":0,\"viewing_time\":3302}]"},{"questionScores":[2400,2412,29,14,2405,2403,30,15,22,2400],"questionIndicies":[31,29,5,27,39,35,7,21,0,11],"judgmentIndicies":[2,4,1,6,0,3,5],"internal_node_id":"0.0-4.0","time_elapsed":171402,"trial_index":13,"trial_type":"survey-multi-choose","responses":"{\"Q0\":\"Reveal Answer\",\"Q1\":\"Keep Hidden\",\"Q2\":\"Reveal Answer\",\"Q3\":\"Keep Hidden\",\"Q4\":\"Reveal Answer\",\"Q5\":\"Keep Hidden\",\"Q6\":\"Keep Hidden\",\"Q7\":\"Reveal Answer\",\"Q8\":\"Reveal Answer\",\"Q9\":\"Keep Hidden\"}","rt":22528},{"questionScores":[2400,2412,29,14,2405,2403,30,15,22,2400],"questionIndicies":[31,29,5,27,39,35,7,21,0,11],"judgmentIndicies":[2,4,1,6,0,3,5],"internal_node_id":"0.0-5.0","time_elapsed":176836,"trial_index":14,"trial_type":"instructions","rt":4428,"view_history":"[{\"page_index\":0,\"viewing_time\":4427}]"}],"__v":0}
{"_id":{"$oid":"5a638e65cafab600042a66bb"},"data":[{"questionScores":[33,2403,32,31,18,2420,18,2392,2411,2397],"questionIndicies":[11,41,19,38,34,0,15,46,24,7],"judgmentIndicies":[4,6,0,5,1,2,3],"internal_node_id":"0.0-0.0","time_elapsed":7918,"trial_index":0,"trial_type":"survey-multi-choice","responses":"{\"Q0\":\"I consent to participate\"}","rt":7867},{"questionScores":[33,2403,32,31,18,2420,18,2392,2411,2397],"questionIndicies":[11,41,19,38,34,0,15,46,24,7],"judgmentIndicies":[4,6,0,5,1,2,3],"internal_node_id":"0.0-1.0","time_elapsed":10802,"trial_index":1,"trial_type":"instructions","rt":1880,"view_history":"[{\"page_index\":0,\"viewing_time\":1878}]"},{"questionScores":[33,2403,32,31,18,2420,18,2392,2411,2397],"questionIndicies":[11,41,19,38,34,0,15,46,24,7],"judgmentIndicies":[4,6,0,5,1,2,3],"internal_node_id":"0.0-2.0-0.0","time_elapsed":25347,"trial_index":2,"trial_type":"survey-likert","responses":"{\"Q0\":\"3\",\"Q1\":\"3\",\"Q2\":\"5\",\"Q3\":\"1\",\"Q4\":\"1\",\"Q5\":\"3\",\"Q6\":\"4\"}","rt":13522},{"questionScores":[33,2403,32,31,18,2420,18,2392,2411,2397],"questionIndicies":[11,41,19,38,34,0,15,46,24,7],"judgmentIndicies":[4,6,0,5,1,2,3],"internal_node_id":"0.0-2.0-1.0","time_elapsed":33487,"trial_index":3,"trial_type":"survey-likert","responses":"{\"Q0\":\"4\",\"Q1\":\"2\",\"Q2\":\"4\",\"Q3\":\"3\",\"Q4\":\"4\",\"Q5\":\"1\",\"Q6\":\"4\"}","rt":7093},{"questionScores":[33,2403,32,31,18,2420,18,2392,2411,2397],"questionIndicies":[11,41,19,38,34,0,15,46,24,7],"judgmentIndicies":[4,6,0,5,1,2,3],"internal_node_id":"0.0-2.0-2.0","time_elapsed":41072,"trial_index":4,"trial_type":"survey-likert","responses":"{\"Q0\":\"4\",\"Q1\":\"3\",\"Q2\":\"5\",\"Q3\":\"2\",\"Q4\":\"0\",\"Q5\":\"3\",\"Q6\":\"3\"}","rt":6558},{"questionScores":[33,2403,32,31,18,2420,18,2392,2411,2397],"questionIndicies":[11,41,19,38,34,0,15,46,24,7],"judgmentIndicies":[4,6,0,5,1,2,3],"internal_node_id":"0.0-2.0-3.0","time_elapsed":51359,"trial_index":5,"trial_type":"survey-likert","responses":"{\"Q0\":\"2\",\"Q1\":\"4\",\"Q2\":\"1\",\"Q3\":\"1\",\"Q4\":\"3\",\"Q5\":\"4\",\"Q6\":\"3\"}","rt":9241},{"questionScores":[33,2403,32,31,18,2420,18,2392,2411,2397],"questionIndicies":[11,41,19,38,34,0,15,46,24,7],"judgmentIndicies":[4,6,0,5,1,2,3],"internal_node_id":"0.0-2.0-4.0","time_elapsed":95661,"trial_index":6,"trial_type":"survey-likert","responses":"{\"Q0\":\"4\",\"Q1\":\"4\",\"Q2\":\"5\",\"Q3\":\"3\",\"Q4\":\"5\",\"Q5\":\"4\",\"Q6\":\"3\"}","rt":43250},{"questionScores":[33,2403,32,31,18,2420,18,2392,2411,2397],"questionIndicies":[11,41,19,38,34,0,15,46,24,7],"judgmentIndicies":[4,6,0,5,1,2,3],"internal_node_id":"0.0-2.0-5.0","time_elapsed":142048,"trial_index":7,"trial_type":"survey-likert","responses":"{\"Q0\":\"3\",\"Q1\":\"5\",\"Q2\":\"4\",\"Q3\":\"2\",\"Q4\":\"4\",\"Q5\":\"3\",\"Q6\":\"4\"}","rt":45342},{"questionScores":[33,2403,32,31,18,2420,18,2392,2411,2397],"questionIndicies":[11,41,19,38,34,0,15,46,24,7],"judgmentIndicies":[4,6,0,5,1,2,3],"internal_node_id":"0.0-2.0-6.0","time_elapsed":147776,"trial_index":8,"trial_type":"survey-likert","responses":"{\"Q0\":\"1\",\"Q1\":\"3\",\"Q2\":\"2\",\"Q3\":\"3\",\"Q4\":\"1\",\"Q5\":\"4\",\"Q6\":\"4\"}","rt":4708},{"questionScores":[33,2403,32,31,18,2420,18,2392,2411,2397],"questionIndicies":[11,41,19,38,34,0,15,46,24,7],"judgmentIndicies":[4,6,0,5,1,2,3],"internal_node_id":"0.0-2.0-7.0","time_elapsed":154490,"trial_index":9,"trial_type":"survey-likert","responses":"{\"Q0\":\"4\",\"Q1\":\"0\",\"Q2\":\"1\",\"Q3\":\"4\",\"Q4\":\"2\",\"Q5\":\"2\",\"Q6\":\"5\"}","rt":5667},{"questionScores":[33,2403,32,31,18,2420,18,2392,2411,2397],"questionIndicies":[11,41,19,38,34,0,15,46,24,7],"judgmentIndicies":[4,6,0,5,1,2,3],"internal_node_id":"0.0-2.0-8.0","time_elapsed":161648,"trial_index":10,"trial_type":"survey-likert","responses":"{\"Q0\":\"3\",\"Q1\":\"1\",\"Q2\":\"2\",\"Q3\":\"3\",\"Q4\":\"2\",\"Q5\":\"2\",\"Q6\":\"4\"}","rt":6117},{"questionScores":[33,2403,32,31,18,2420,18,2392,2411,2397],"questionIndicies":[11,41,19,38,34,0,15,46,24,7],"judgmentIndicies":[4,6,0,5,1,2,3],"internal_node_id":"0.0-2.0-9.0","time_elapsed":168197,"trial_index":11,"trial_type":"survey-likert","responses":"{\"Q0\":\"3\",\"Q1\":\"2\",\"Q2\":\"4\",\"Q3\":\"2\",\"Q4\":\"5\",\"Q5\":\"2\",\"Q6\":\"5\"}","rt":5492},{"questionScores":[33,2403,32,31,18,2420,18,2392,2411,2397],"questionIndicies":[11,41,19,38,34,0,15,46,24,7],"judgmentIndicies":[4,6,0,5,1,2,3],"internal_node_id":"0.0-3.0","time_elapsed":170598,"trial_index":12,"trial_type":"instructions","rt":1399,"view_history":"[{\"page_index\":0,\"viewing_time\":1397}]"},{"questionScores":[33,2403,32,31,18,2420,18,2392,2411,2397],"questionIndicies":[11,41,19,38,34,0,15,46,24,7],"judgmentIndicies":[4,6,0,5,1,2,3],"internal_node_id":"0.0-4.0","time_elapsed":213472,"trial_index":13,"trial_type":"survey-multi-choose","responses":"{\"Q0\":\"Reveal Answer\",\"Q1\":\"Keep Hidden\",\"Q2\":\"Reveal Answer\",\"Q3\":\"Keep Hidden\",\"Q4\":\"Reveal Answer\",\"Q5\":\"Keep Hidden\",\"Q6\":\"Reveal Answer\",\"Q7\":\"Keep Hidden\",\"Q8\":\"Keep Hidden\",\"Q9\":\"Reveal Answer\"}","rt":41771},{"questionScores":[33,2403,32,31,18,2420,18,2392,2411,2397],"questionIndicies":[11,41,19,38,34,0,15,46,24,7],"judgmentIndicies":[4,6,0,5,1,2,3],"internal_node_id":"0.0-5.0","time_elapsed":228212,"trial_index":14,"trial_type":"instructions","rt":13691,"view_history":"[{\"page_index\":0,\"viewing_time\":13689}]"}],"__v":0}
{"_id":{"$oid":"5a638e8bcafab600042a66bc"},"data":[{"questionScores":[22,37,2408,2401,2413,29,32,2412,30,2398],"questionIndicies":[9,25,37,24,38,15,43,40,18,6],"judgmentIndicies":[1,6,4,2,5,3,0],"internal_node_id":"0.0-0.0","time_elapsed":5750,"trial_index":0,"trial_type":"survey-multi-choice","responses":"{\"Q0\":\"I consent to participate\"}","rt":5734},{"questionScores":[22,37,2408,2401,2413,29,32,2412,30,2398],"questionIndicies":[9,25,37,24,38,15,43,40,18,6],"judgmentIndicies":[1,6,4,2,5,3,0],"internal_node_id":"0.0-1.0","time_elapsed":8675,"trial_index":1,"trial_type":"instructions","rt":1923,"view_history":"[{\"page_index\":0,\"viewing_time\":1922}]"},{"questionScores":[22,37,2408,2401,2413,29,32,2412,30,2398],"questionIndicies":[9,25,37,24,38,15,43,40,18,6],"judgmentIndicies":[1,6,4,2,5,3,0],"internal_node_id":"0.0-2.0-0.0","time_elapsed":29804,"trial_index":2,"trial_type":"survey-likert","responses":"{\"Q0\":\"2\",\"Q1\":\"1\",\"Q2\":\"2\",\"Q3\":\"2\",\"Q4\":\"3\",\"Q5\":\"1\",\"Q6\":\"3\"}","rt":20120},{"questionScores":[22,37,2408,2401,2413,29,32,2412,30,2398],"questionIndicies":[9,25,37,24,38,15,43,40,18,6],"judgmentIndicies":[1,6,4,2,5,3,0],"internal_node_id":"0.0-2.0-1.0","time_elapsed":43854,"trial_index":3,"trial_type":"survey-likert","responses":"{\"Q0\":\"4\",\"Q1\":\"4\",\"Q2\":\"2\",\"Q3\":\"5\",\"Q4\":\"1\",\"Q5\":\"4\",\"Q6\":\"3\"}","rt":13042},{"questionScores":[22,37,2408,2401,2413,29,32,2412,30,2398],"questionIndicies":[9,25,37,24,38,15,43,40,18,6],"judgmentIndicies":[1,6,4,2,5,3,0],"internal_node_id":"0.0-2.0-2.0","time_elapsed":58254,"trial_index":4,"trial_type":"survey-likert","responses":"{\"Q0\":\"3\",\"Q1\":\"2\",\"Q2\":\"3\",\"Q3\":\"4\",\"Q4\":\"1\",\"Q5\":\"4\",\"Q6\":\"3\"}","rt":13393},{"questionScores":[22,37,2408,2401,2413,29,32,2412,30,2398],"questionIndicies":[9,25,37,24,38,15,43,40,18,6],"judgmentIndicies":[1,6,4,2,5,3,0],"internal_node_id":"0.0-2.0-3.0","time_elapsed":74701,"trial_index":5,"trial_type":"survey-likert","responses":"{\"Q0\":\"0\",\"Q1\":\"3\",\"Q2\":\"2\",\"Q3\":\"5\",\"Q4\":\"3\",\"Q5\":\"1\",\"Q6\":\"2\"}","rt":15440},{"questionScores":[22,37,2408,2401,2413,29,32,2412,30,2398],"questionIndicies":[9,25,37,24,38,15,43,40,18,6],"judgmentIndicies":[1,6,4,2,5,3,0],"internal_node_id":"0.0-2.0-4.0","time_elapsed":91846,"trial_index":6,"trial_type":"survey-likert","responses":"{\"Q0\":\"3\",\"Q1\":\"2\",\"Q2\":\"1\",\"Q3\":\"2\",\"Q4\":\"3\",\"Q5\":\"1\",\"Q6\":\"2\"}","rt":16138},{"questionScores":[22,37,2408,2401,2413,29,32,2412,30,2398],"questionIndicies":[9,25,37,24,38,15,43,40,18,6],"judgmentIndicies":[1,6,4,2,5,3,0],"internal_node_id":"0.0-2.0-5.0","time_elapsed":104108,"trial_index":7,"trial_type":"survey-likert","responses":"{\"Q0\":\"2\",\"Q1\":\"3\",\"Q2\":\"2\",\"Q3\":\"4\",\"Q4\":\"1\",\"Q5\":\"3\",\"Q6\":\"4\"}","rt":11255},{"questionScores":[22,37,2408,2401,2413,29,32,2412,30,2398],"questionIndicies":[9,25,37,24,38,15,43,40,18,6],"judgmentIndicies":[1,6,4,2,5,3,0],"internal_node_id":"0.0-2.0-6.0","time_elapsed":118531,"trial_index":8,"trial_type":"survey-likert","responses":"{\"Q0\":\"4\",\"Q1\":\"3\",\"Q2\":\"2\",\"Q3\":\"3\",\"Q4\":\"3\",\"Q5\":\"1\",\"Q6\":\"2\"}","rt":13416},{"questionScores":[22,37,2408,2401,2413,29,32,2412,30,2398],"questionIndicies":[9,25,37,24,38,15,43,40,18,6],"judgmentIndicies":[1,6,4,2,5,3,0],"internal_node_id":"0.0-2.0-7.0","time_elapsed":133550,"trial_index":9,"trial_type":"survey-likert","responses":"{\"Q0\":\"3\",\"Q1\":\"4\",\"Q2\":\"2\",\"Q3\":\"4\",\"Q4\":\"3\",\"Q5\":\"3\",\"Q6\":\"4\"}","rt":14012},{"questionScores":[22,37,2408,2401,2413,29,32,2412,30,2398],"questionIndicies":[9,25,37,24,38,15,43,40,18,6],"judgmentIndicies":[1,6,4,2,5,3,0],"internal_node_id":"0.0-2.0-8.0","time_elapsed":165174,"trial_index":10,"trial_type":"survey-likert","responses":"{\"Q0\":\"4\",\"Q1\":\"3\",\"Q2\":\"3\",\"Q3\":\"4\",\"Q4\":\"2\",\"Q5\":\"3\",\"Q6\":\"3\"}","rt":30617},{"questionScores":[22,37,2408,2401,2413,29,32,2412,30,2398],"questionIndicies":[9,25,37,24,38,15,43,40,18,6],"judgmentIndicies":[1,6,4,2,5,3,0],"internal_node_id":"0.0-2.0-9.0","time_elapsed":177055,"trial_index":11,"trial_type":"survey-likert","responses":"{\"Q0\":\"2\",\"Q1\":\"4\",\"Q2\":\"3\",\"Q3\":\"5\",\"Q4\":\"4\",\"Q5\":\"2\",\"Q6\":\"4\"}","rt":10873},{"questionScores":[22,37,2408,2401,2413,29,32,2412,30,2398],"questionIndicies":[9,25,37,24,38,15,43,40,18,6],"judgmentIndicies":[1,6,4,2,5,3,0],"internal_node_id":"0.0-3.0","time_elapsed":186649,"trial_index":12,"trial_type":"instructions","rt":8593,"view_history":"[{\"page_index\":0,\"viewing_time\":8593}]"},{"questionScores":[22,37,2408,2401,2413,29,32,2412,30,2398],"questionIndicies":[9,25,37,24,38,15,43,40,18,6],"judgmentIndicies":[1,6,4,2,5,3,0],"internal_node_id":"0.0-4.0","time_elapsed":210636,"trial_index":13,"trial_type":"survey-multi-choose","responses":"{\"Q0\":\"Reveal Answer\",\"Q1\":\"Reveal Answer\",\"Q2\":\"Reveal Answer\",\"Q3\":\"Keep Hidden\",\"Q4\":\"Keep Hidden\",\"Q5\":\"Keep Hidden\",\"Q6\":\"Keep Hidden\",\"Q7\":\"Reveal Answer\",\"Q8\":\"Keep Hidden\",\"Q9\":\"Reveal Answer\"}","rt":22973},{"questionScores":[22,37,2408,2401,2413,29,32,2412,30,2398],"questionIndicies":[9,25,37,24,38,15,43,40,18,6],"judgmentIndicies":[1,6,4,2,5,3,0],"internal_node_id":"0.0-5.0","time_elapsed":264702,"trial_index":14,"trial_type":"instructions","rt":53059,"view_history":"[{\"page_index\":0,\"viewing_time\":53058}]"}],"__v":0}
{"_id":{"$oid":"5a638e92cafab600042a66bd"},"data":[{"questionScores":[2421,18,2400,20,2401,25,2417,2389,14,24],"questionIndicies":[16,21,18,23,13,12,5,42,45,44],"judgmentIndicies":[1,2,5,6,4,3,0],"internal_node_id":"0.0-0.0","time_elapsed":4269,"trial_index":0,"trial_type":"survey-multi-choice","responses":"{\"Q0\":\"I consent to participate\"}","rt":4255},{"questionScores":[2421,18,2400,20,2401,25,2417,2389,14,24],"questionIndicies":[16,21,18,23,13,12,5,42,45,44],"judgmentIndicies":[1,2,5,6,4,3,0],"internal_node_id":"0.0-1.0","time_elapsed":6264,"trial_index":1,"trial_type":"instructions","rt":994,"view_history":"[{\"page_index\":0,\"viewing_time\":993}]"},{"questionScores":[2421,18,2400,20,2401,25,2417,2389,14,24],"questionIndicies":[16,21,18,23,13,12,5,42,45,44],"judgmentIndicies":[1,2,5,6,4,3,0],"internal_node_id":"0.0-2.0-0.0","time_elapsed":21072,"trial_index":2,"trial_type":"survey-likert","responses":"{\"Q0\":\"4\",\"Q1\":\"5\",\"Q2\":\"6\",\"Q3\":\"5\",\"Q4\":\"4\",\"Q5\":\"5\",\"Q6\":\"4\"}","rt":13796},{"questionScores":[2421,18,2400,20,2401,25,2417,2389,14,24],"questionIndicies":[16,21,18,23,13,12,5,42,45,44],"judgmentIndicies":[1,2,5,6,4,3,0],"internal_node_id":"0.0-2.0-1.0","time_elapsed":33108,"trial_index":3,"trial_type":"survey-likert","responses":"{\"Q0\":\"2\",\"Q1\":\"4\",\"Q2\":\"5\",\"Q3\":\"5\",\"Q4\":\"2\",\"Q5\":\"4\",\"Q6\":\"5\"}","rt":11024},{"questionScores":[2421,18,2400,20,2401,25,2417,2389,14,24],"questionIndicies":[16,21,18,23,13,12,5,42,45,44],"judgmentIndicies":[1,2,5,6,4,3,0],"internal_node_id":"0.0-2.0-2.0","time_elapsed":43047,"trial_index":4,"trial_type":"survey-likert","responses":"{\"Q0\":\"5\",\"Q1\":\"4\",\"Q2\":\"3\",\"Q3\":\"5\",\"Q4\":\"3\",\"Q5\":\"5\",\"Q6\":\"5\"}","rt":8930},{"questionScores":[2421,18,2400,20,2401,25,2417,2389,14,24],"questionIndicies":[16,21,18,23,13,12,5,42,45,44],"judgmentIndicies":[1,2,5,6,4,3,0],"internal_node_id":"0.0-2.0-3.0","time_elapsed":58732,"trial_index":5,"trial_type":"survey-likert","responses":"{\"Q0\":\"4\",\"Q1\":\"5\",\"Q2\":\"5\",\"Q3\":\"3\",\"Q4\":\"4\",\"Q5\":\"4\",\"Q6\":\"3\"}","rt":14677},{"questionScores":[2421,18,2400,20,2401,25,2417,2389,14,24],"questionIndicies":[16,21,18,23,13,12,5,42,45,44],"judgmentIndicies":[1,2,5,6,4,3,0],"internal_node_id":"0.0-2.0-4.0","time_elapsed":86658,"trial_index":6,"trial_type":"survey-likert","responses":"{\"Q0\":\"3\",\"Q1\":\"5\",\"Q2\":\"4\",\"Q3\":\"2\",\"Q4\":\"5\",\"Q5\":\"6\",\"Q6\":\"5\"}","rt":26919},{"questionScores":[2421,18,2400,20,2401,25,2417,2389,14,24],"questionIndicies":[16,21,18,23,13,12,5,42,45,44],"judgmentIndicies":[1,2,5,6,4,3,0],"internal_node_id":"0.0-2.0-5.0","time_elapsed":97552,"trial_index":7,"trial_type":"survey-likert","responses":"{\"Q0\":\"2\",\"Q1\":\"4\",\"Q2\":\"5\",\"Q3\":\"3\",\"Q4\":\"4\",\"Q5\":\"4\",\"Q6\":\"5\"}","rt":9878},{"questionScores":[2421,18,2400,20,2401,25,2417,2389,14,24],"questionIndicies":[16,21,18,23,13,12,5,42,45,44],"judgmentIndicies":[1,2,5,6,4,3,0],"internal_node_id":"0.0-2.0-6.0","time_elapsed":112575,"trial_index":8,"trial_type":"survey-likert","responses":"{\"Q0\":\"3\",\"Q1\":\"5\",\"Q2\":\"4\",\"Q3\":\"5\",\"Q4\":\"2\",\"Q5\":\"3\",\"Q6\":\"4\"}","rt":14014},{"questionScores":[2421,18,2400,20,2401,25,2417,2389,14,24],"questionIndicies":[16,21,18,23,13,12,5,42,45,44],"judgmentIndicies":[1,2,5,6,4,3,0],"internal_node_id":"0.0-2.0-7.0","time_elapsed":155682,"trial_index":9,"trial_type":"survey-likert","responses":"{\"Q0\":\"2\",\"Q1\":\"5\",\"Q2\":\"2\",\"Q3\":\"4\",\"Q4\":\"5\",\"Q5\":\"3\",\"Q6\":\"4\"}","rt":42101},{"questionScores":[2421,18,2400,20,2401,25,2417,2389,14,24],"questionIndicies":[16,21,18,23,13,12,5,42,45,44],"judgmentIndicies":[1,2,5,6,4,3,0],"internal_node_id":"0.0-2.0-8.0","time_elapsed":165579,"trial_index":10,"trial_type":"survey-likert","responses":"{\"Q0\":\"4\",\"Q1\":\"5\",\"Q2\":\"2\",\"Q3\":\"3\",\"Q4\":\"4\",\"Q5\":\"4\",\"Q6\":\"5\"}","rt":8890},{"questionScores":[2421,18,2400,20,2401,25,2417,2389,14,24],"questionIndicies":[16,21,18,23,13,12,5,42,45,44],"judgmentIndicies":[1,2,5,6,4,3,0],"internal_node_id":"0.0-2.0-9.0","time_elapsed":177150,"trial_index":11,"trial_type":"survey-likert","responses":"{\"Q0\":\"5\",\"Q1\":\"6\",\"Q2\":\"4\",\"Q3\":\"5\",\"Q4\":\"4\",\"Q5\":\"5\",\"Q6\":\"4\"}","rt":10561},{"questionScores":[2421,18,2400,20,2401,25,2417,2389,14,24],"questionIndicies":[16,21,18,23,13,12,5,42,45,44],"judgmentIndicies":[1,2,5,6,4,3,0],"internal_node_id":"0.0-3.0","time_elapsed":179289,"trial_index":12,"trial_type":"instructions","rt":1139,"view_history":"[{\"page_index\":0,\"viewing_time\":1139}]"},{"questionScores":[2421,18,2400,20,2401,25,2417,2389,14,24],"questionIndicies":[16,21,18,23,13,12,5,42,45,44],"judgmentIndicies":[1,2,5,6,4,3,0],"internal_node_id":"0.0-4.0","time_elapsed":197983,"trial_index":13,"trial_type":"survey-multi-choose","responses":"{\"Q0\":\"Reveal Answer\",\"Q1\":\"Keep Hidden\",\"Q2\":\"Keep Hidden\",\"Q3\":\"Reveal Answer\",\"Q4\":\"Reveal Answer\",\"Q5\":\"Keep Hidden\",\"Q6\":\"Keep Hidden\",\"Q7\":\"Reveal Answer\",\"Q8\":\"Reveal Answer\",\"Q9\":\"Keep Hidden\"}","rt":17683},{"questionScores":[2421,18,2400,20,2401,25,2417,2389,14,24],"questionIndicies":[16,21,18,23,13,12,5,42,45,44],"judgmentIndicies":[1,2,5,6,4,3,0],"internal_node_id":"0.0-5.0","time_elapsed":202847,"trial_index":14,"trial_type":"instructions","rt":3848,"view_history":"[{\"page_index\":0,\"viewing_time\":3847}]"}],"__v":0}
{"_id":{"$oid":"5a638ea8cafab600042a66be"},"data":[{"questionScores":[22,2415,37,2396,2408,2408,4,2394,33,18],"questionIndicies":[0,38,43,2,48,29,24,23,25,6],"judgmentIndicies":[5,2,0,4,6,1,3],"internal_node_id":"0.0-0.0","time_elapsed":4295,"trial_index":0,"trial_type":"survey-multi-choice","responses":"{\"Q0\":\"I consent to participate\"}","rt":4286},{"questionScores":[22,2415,37,2396,2408,2408,4,2394,33,18],"questionIndicies":[0,38,43,2,48,29,24,23,25,6],"judgmentIndicies":[5,2,0,4,6,1,3],"internal_node_id":"0.0-1.0","time_elapsed":41210,"trial_index":1,"trial_type":"instructions","rt":35904,"view_history":"[{\"page_index\":0,\"viewing_time\":35903}]"},{"questionScores":[22,2415,37,2396,2408,2408,4,2394,33,18],"questionIndicies":[0,38,43,2,48,29,24,23,25,6],"judgmentIndicies":[5,2,0,4,6,1,3],"internal_node_id":"0.0-2.0-0.0","time_elapsed":54345,"trial_index":2,"trial_type":"survey-likert","responses":"{\"Q0\":\"2\",\"Q1\":\"3\",\"Q2\":\"1\",\"Q3\":\"2\",\"Q4\":\"3\",\"Q5\":\"2\",\"Q6\":\"2\"}","rt":12125},{"questionScores":[22,2415,37,2396,2408,2408,4,2394,33,18],"questionIndicies":[0,38,43,2,48,29,24,23,25,6],"judgmentIndicies":[5,2,0,4,6,1,3],"internal_node_id":"0.0-2.0-1.0","time_elapsed":62413,"trial_index":3,"trial_type":"survey-likert","responses":"{\"Q0\":\"4\",\"Q1\":\"1\",\"Q2\":\"3\",\"Q3\":\"2\",\"Q4\":\"3\",\"Q5\":\"2\",\"Q6\":\"1\"}","rt":7053},{"questionScores":[22,2415,37,2396,2408,2408,4,2394,33,18],"questionIndicies":[0,38,43,2,48,29,24,23,25,6],"judgmentIndicies":[5,2,0,4,6,1,3],"internal_node_id":"0.0-2.0-2.0","time_elapsed":68088,"trial_index":4,"trial_type":"survey-likert","responses":"{\"Q0\":\"3\",\"Q1\":\"1\",\"Q2\":\"3\",\"Q3\":\"2\",\"Q4\":\"3\",\"Q5\":\"2\",\"Q6\":\"3\"}","rt":4662},{"questionScores":[22,2415,37,2396,2408,2408,4,2394,33,18],"questionIndicies":[0,38,43,2,48,29,24,23,25,6],"judgmentIndicies":[5,2,0,4,6,1,3],"internal_node_id":"0.0-2.0-3.0","time_elapsed":73438,"trial_index":5,"trial_type":"survey-likert","responses":"{\"Q0\":\"2\",\"Q1\":\"2\",\"Q2\":\"3\",\"Q3\":\"2\",\"Q4\":\"3\",\"Q5\":\"2\",\"Q6\":\"2\"}","rt":4337},{"questionScores":[22,2415,37,2396,2408,2408,4,2394,33,18],"questionIndicies":[0,38,43,2,48,29,24,23,25,6],"judgmentIndicies":[5,2,0,4,6,1,3],"internal_node_id":"0.0-2.0-4.0","time_elapsed":78795,"trial_index":6,"trial_type":"survey-likert","responses":"{\"Q0\":\"3\",\"Q1\":\"1\",\"Q2\":\"3\",\"Q3\":\"2\",\"Q4\":\"3\",\"Q5\":\"2\",\"Q6\":\"2\"}","rt":4343},{"questionScores":[22,2415,37,2396,2408,2408,4,2394,33,18],"questionIndicies":[0,38,43,2,48,29,24,23,25,6],"judgmentIndicies":[5,2,0,4,6,1,3],"internal_node_id":"0.0-2.0-5.0","time_elapsed":90517,"trial_index":7,"trial_type":"survey-likert","responses":"{\"Q0\":\"4\",\"Q1\":\"1\",\"Q2\":\"3\",\"Q3\":\"2\",\"Q4\":\"1\",\"Q5\":\"2\",\"Q6\":\"2\"}","rt":10708},{"questionScores":[22,2415,37,2396,2408,2408,4,2394,33,18],"questionIndicies":[0,38,43,2,48,29,24,23,25,6],"judgmentIndicies":[5,2,0,4,6,1,3],"internal_node_id":"0.0-2.0-6.0","time_elapsed":95298,"trial_index":8,"trial_type":"survey-likert","responses":"{\"Q0\":\"3\",\"Q1\":\"1\",\"Q2\":\"3\",\"Q3\":\"2\",\"Q4\":\"3\",\"Q5\":\"2\",\"Q6\":\"2\"}","rt":3766},{"questionScores":[22,2415,37,2396,2408,2408,4,2394,33,18],"questionIndicies":[0,38,43,2,48,29,24,23,25,6],"judgmentIndicies":[5,2,0,4,6,1,3],"internal_node_id":"0.0-2.0-7.0","time_elapsed":100097,"trial_index":9,"trial_type":"survey-likert","responses":"{\"Q0\":\"3\",\"Q1\":\"2\",\"Q2\":\"2\",\"Q3\":\"3\",\"Q4\":\"3\",\"Q5\":\"2\",\"Q6\":\"3\"}","rt":3781},{"questionScores":[22,2415,37,2396,2408,2408,4,2394,33,18],"questionIndicies":[0,38,43,2,48,29,24,23,25,6],"judgmentIndicies":[5,2,0,4,6,1,3],"internal_node_id":"0.0-2.0-8.0","time_elapsed":107252,"trial_index":10,"trial_type":"survey-likert","responses":"{\"Q0\":\"3\",\"Q1\":\"2\",\"Q2\":\"3\",\"Q3\":\"2\",\"Q4\":\"3\",\"Q5\":\"3\",\"Q6\":\"3\"}","rt":6136},{"questionScores":[22,2415,37,2396,2408,2408,4,2394,33,18],"questionIndicies":[0,38,43,2,48,29,24,23,25,6],"judgmentIndicies":[5,2,0,4,6,1,3],"internal_node_id":"0.0-2.0-9.0","time_elapsed":113102,"trial_index":11,"trial_type":"survey-likert","responses":"{\"Q0\":\"3\",\"Q1\":\"2\",\"Q2\":\"3\",\"Q3\":\"2\",\"Q4\":\"3\",\"Q5\":\"2\",\"Q6\":\"3\"}","rt":4837},{"questionScores":[22,2415,37,2396,2408,2408,4,2394,33,18],"questionIndicies":[0,38,43,2,48,29,24,23,25,6],"judgmentIndicies":[5,2,0,4,6,1,3],"internal_node_id":"0.0-3.0","time_elapsed":115454,"trial_index":12,"trial_type":"instructions","rt":1351,"view_history":"[{\"page_index\":0,\"viewing_time\":1350}]"},{"questionScores":[22,2415,37,2396,2408,2408,4,2394,33,18],"questionIndicies":[0,38,43,2,48,29,24,23,25,6],"judgmentIndicies":[5,2,0,4,6,1,3],"internal_node_id":"0.0-4.0","time_elapsed":168574,"trial_index":13,"trial_type":"survey-multi-choose","responses":"{\"Q0\":\"Reveal Answer\",\"Q1\":\"Reveal Answer\",\"Q2\":\"Keep Hidden\",\"Q3\":\"Reveal Answer\",\"Q4\":\"Reveal Answer\",\"Q5\":\"Reveal Answer\",\"Q6\":\"Keep Hidden\",\"Q7\":\"Keep Hidden\",\"Q8\":\"Keep Hidden\",\"Q9\":\"Keep Hidden\"}","rt":52086},{"questionScores":[22,2415,37,2396,2408,2408,4,2394,33,18],"questionIndicies":[0,38,43,2,48,29,24,23,25,6],"judgmentIndicies":[5,2,0,4,6,1,3],"internal_node_id":"0.0-5.0","time_elapsed":224883,"trial_index":14,"trial_type":"instructions","rt":55299,"view_history":"[{\"page_index\":0,\"viewing_time\":55297}]"}],"__v":0}
{"_id":{"$oid":"5a638ed1cafab600042a66bf"},"data":[{"questionScores":[5,20,33,2391,2404,2414,27,36,2395,2404],"questionIndicies":[20,48,23,15,30,34,12,37,16,25],"judgmentIndicies":[6,0,4,1,3,2,5],"internal_node_id":"0.0-0.0","time_elapsed":26199,"trial_index":0,"trial_type":"survey-multi-choice","responses":"{\"Q0\":\"I consent to participate\"}","rt":26191},{"questionScores":[5,20,33,2391,2404,2414,27,36,2395,2404],"questionIndicies":[20,48,23,15,30,34,12,37,16,25],"judgmentIndicies":[6,0,4,1,3,2,5],"internal_node_id":"0.0-1.0","time_elapsed":38798,"trial_index":1,"trial_type":"instructions","rt":11597,"view_history":"[{\"page_index\":0,\"viewing_time\":11596}]"},{"questionScores":[5,20,33,2391,2404,2414,27,36,2395,2404],"questionIndicies":[20,48,23,15,30,34,12,37,16,25],"judgmentIndicies":[6,0,4,1,3,2,5],"internal_node_id":"0.0-2.0-0.0","time_elapsed":73608,"trial_index":2,"trial_type":"survey-likert","responses":"{\"Q0\":\"2\",\"Q1\":\"2\",\"Q2\":\"5\",\"Q3\":\"1\",\"Q4\":\"1\",\"Q5\":\"1\",\"Q6\":\"1\"}","rt":33801},{"questionScores":[5,20,33,2391,2404,2414,27,36,2395,2404],"questionIndicies":[20,48,23,15,30,34,12,37,16,25],"judgmentIndicies":[6,0,4,1,3,2,5],"internal_node_id":"0.0-2.0-1.0","time_elapsed":91546,"trial_index":3,"trial_type":"survey-likert","responses":"{\"Q0\":\"0\",\"Q1\":\"0\",\"Q2\":\"5\",\"Q3\":\"0\",\"Q4\":\"0\",\"Q5\":\"0\",\"Q6\":\"0\"}","rt":16923},{"questionScores":[5,20,33,2391,2404,2414,27,36,2395,2404],"questionIndicies":[20,48,23,15,30,34,12,37,16,25],"judgmentIndicies":[6,0,4,1,3,2,5],"internal_node_id":"0.0-2.0-2.0","time_elapsed":109856,"trial_index":4,"trial_type":"survey-likert","responses":"{\"Q0\":\"4\",\"Q1\":\"4\",\"Q2\":\"4\",\"Q3\":\"4\",\"Q4\":\"1\",\"Q5\":\"4\",\"Q6\":\"1\"}","rt":17298},{"questionScores":[5,20,33,2391,2404,2414,27,36,2395,2404],"questionIndicies":[20,48,23,15,30,34,12,37,16,25],"judgmentIndicies":[6,0,4,1,3,2,5],"internal_node_id":"0.0-2.0-3.0","time_elapsed":130155,"trial_index":5,"trial_type":"survey-likert","responses":"{\"Q0\":\"4\",\"Q1\":\"4\",\"Q2\":\"3\",\"Q3\":\"0\",\"Q4\":\"6\",\"Q5\":\"3\",\"Q6\":\"1\"}","rt":19288},{"questionScores":[5,20,33,2391,2404,2414,27,36,2395,2404],"questionIndicies":[20,48,23,15,30,34,12,37,16,25],"judgmentIndicies":[6,0,4,1,3,2,5],"internal_node_id":"0.0-2.0-4.0","time_elapsed":147079,"trial_index":6,"trial_type":"survey-likert","responses":"{\"Q0\":\"2\",\"Q1\":\"4\",\"Q2\":\"4\",\"Q3\":\"0\",\"Q4\":\"3\",\"Q5\":\"3\",\"Q6\":\"1\"}","rt":15911},{"questionScores":[5,20,33,2391,2404,2414,27,36,2395,2404],"questionIndicies":[20,48,23,15,30,34,12,37,16,25],"judgmentIndicies":[6,0,4,1,3,2,5],"internal_node_id":"0.0-2.0-5.0","time_elapsed":174314,"trial_index":7,"trial_type":"survey-likert","responses":"{\"Q0\":\"4\",\"Q1\":\"4\",\"Q2\":\"4\",\"Q3\":\"3\",\"Q4\":\"5\",\"Q5\":\"4\",\"Q6\":\"1\"}","rt":26230},{"questionScores":[5,20,33,2391,2404,2414,27,36,2395,2404],"questionIndicies":[20,48,23,15,30,34,12,37,16,25],"judgmentIndicies":[6,0,4,1,3,2,5],"internal_node_id":"0.0-2.0-6.0","time_elapsed":194543,"trial_index":8,"trial_type":"survey-likert","responses":"{\"Q0\":\"0\",\"Q1\":\"0\",\"Q2\":\"2\",\"Q3\":\"4\",\"Q4\":\"0\",\"Q5\":\"0\",\"Q6\":\"0\"}","rt":19223},{"questionScores":[5,20,33,2391,2404,2414,27,36,2395,2404],"questionIndicies":[20,48,23,15,30,34,12,37,16,25],"judgmentIndicies":[6,0,4,1,3,2,5],"internal_node_id":"0.0-2.0-7.0","time_elapsed":220839,"trial_index":9,"trial_type":"survey-likert","responses":"{\"Q0\":\"2\",\"Q1\":\"2\",\"Q2\":\"2\",\"Q3\":\"2\",\"Q4\":\"2\",\"Q5\":\"1\",\"Q6\":\"3\"}","rt":25288},{"questionScores":[5,20,33,2391,2404,2414,27,36,2395,2404],"questionIndicies":[20,48,23,15,30,34,12,37,16,25],"judgmentIndicies":[6,0,4,1,3,2,5],"internal_node_id":"0.0-2.0-8.0","time_elapsed":235576,"trial_index":10,"trial_type":"survey-likert","responses":"{\"Q0\":\"1\",\"Q1\":\"1\",\"Q2\":\"3\",\"Q3\":\"1\",\"Q4\":\"1\",\"Q5\":\"1\",\"Q6\":\"1\"}","rt":13727},{"questionScores":[5,20,33,2391,2404,2414,27,36,2395,2404],"questionIndicies":[20,48,23,15,30,34,12,37,16,25],"judgmentIndicies":[6,0,4,1,3,2,5],"internal_node_id":"0.0-2.0-9.0","time_elapsed":255082,"trial_index":11,"trial_type":"survey-likert","responses":"{\"Q0\":\"4\",\"Q1\":\"4\",\"Q2\":\"3\",\"Q3\":\"1\",\"Q4\":\"5\",\"Q5\":\"3\",\"Q6\":\"1\"}","rt":18492},{"questionScores":[5,20,33,2391,2404,2414,27,36,2395,2404],"questionIndicies":[20,48,23,15,30,34,12,37,16,25],"judgmentIndicies":[6,0,4,1,3,2,5],"internal_node_id":"0.0-3.0","time_elapsed":263858,"trial_index":12,"trial_type":"instructions","rt":7774,"view_history":"[{\"page_index\":0,\"viewing_time\":7773}]"},{"questionScores":[5,20,33,2391,2404,2414,27,36,2395,2404],"questionIndicies":[20,48,23,15,30,34,12,37,16,25],"judgmentIndicies":[6,0,4,1,3,2,5],"internal_node_id":"0.0-4.0","time_elapsed":298312,"trial_index":13,"trial_type":"survey-multi-choose","responses":"{\"Q0\":\"Keep Hidden\",\"Q1\":\"Keep Hidden\",\"Q2\":\"Reveal Answer\",\"Q3\":\"Keep Hidden\",\"Q4\":\"Reveal Answer\",\"Q5\":\"Keep Hidden\",\"Q6\":\"Keep Hidden\",\"Q7\":\"Reveal Answer\",\"Q8\":\"Reveal Answer\",\"Q9\":\"Reveal Answer\"}","rt":33424},{"questionScores":[5,20,33,2391,2404,2414,27,36,2395,2404],"questionIndicies":[20,48,23,15,30,34,12,37,16,25],"judgmentIndicies":[6,0,4,1,3,2,5],"internal_node_id":"0.0-5.0","time_elapsed":309505,"trial_index":14,"trial_type":"instructions","rt":10190,"view_history":"[{\"page_index\":0,\"viewing_time\":10188}]"}],"__v":0}
{"_id":{"$oid":"5a638ed5cafab600042a66c0"},"data":[{"questionScores":[2390,2410,28,21,14,12,2403,2405,2432,7],"questionIndicies":[47,33,22,20,10,8,16,36,0,40],"judgmentIndicies":[0,3,1,6,5,2,4],"internal_node_id":"0.0-0.0","time_elapsed":3916,"trial_index":0,"trial_type":"survey-multi-choice","responses":"{\"Q0\":\"I consent to participate\"}","rt":3798},{"questionScores":[2390,2410,28,21,14,12,2403,2405,2432,7],"questionIndicies":[47,33,22,20,10,8,16,36,0,40],"judgmentIndicies":[0,3,1,6,5,2,4],"internal_node_id":"0.0-1.0","time_elapsed":6187,"trial_index":1,"trial_type":"instructions","rt":1266,"view_history":"[{\"page_index\":0,\"viewing_time\":1264}]"},{"questionScores":[2390,2410,28,21,14,12,2403,2405,2432,7],"questionIndicies":[47,33,22,20,10,8,16,36,0,40],"judgmentIndicies":[0,3,1,6,5,2,4],"internal_node_id":"0.0-2.0-0.0","time_elapsed":30289,"trial_index":2,"trial_type":"survey-likert","responses":"{\"Q0\":\"0\",\"Q1\":\"0\",\"Q2\":\"3\",\"Q3\":\"0\",\"Q4\":\"6\",\"Q5\":\"0\",\"Q6\":\"3\"}","rt":23070},{"questionScores":[2390,2410,28,21,14,12,2403,2405,2432,7],"questionIndicies":[47,33,22,20,10,8,16,36,0,40],"judgmentIndicies":[0,3,1,6,5,2,4],"internal_node_id":"0.0-2.0-1.0","time_elapsed":50749,"trial_index":3,"trial_type":"survey-likert","responses":"{\"Q0\":\"0\",\"Q1\":\"0\",\"Q2\":\"0\",\"Q3\":\"0\",\"Q4\":\"6\",\"Q5\":\"0\",\"Q6\":\"2\"}","rt":19423},{"questionScores":[2390,2410,28,21,14,12,2403,2405,2432,7],"questionIndicies":[47,33,22,20,10,8,16,36,0,40],"judgmentIndicies":[0,3,1,6,5,2,4],"internal_node_id":"0.0-2.0-2.0","time_elapsed":71756,"trial_index":4,"trial_type":"survey-likert","responses":"{\"Q0\":\"6\",\"Q1\":\"6\",\"Q2\":\"0\",\"Q3\":\"0\",\"Q4\":\"6\",\"Q5\":\"0\",\"Q6\":\"6\"}","rt":19977},{"questionScores":[2390,2410,28,21,14,12,2403,2405,2432,7],"questionIndicies":[47,33,22,20,10,8,16,36,0,40],"judgmentIndicies":[0,3,1,6,5,2,4],"internal_node_id":"0.0-2.0-3.0","time_elapsed":91324,"trial_index":5,"trial_type":"survey-likert","responses":"{\"Q0\":\"6\",\"Q1\":\"6\",\"Q2\":\"0\",\"Q3\":\"3\",\"Q4\":\"6\",\"Q5\":\"3\",\"Q6\":\"6\"}","rt":18542},{"questionScores":[2390,2410,28,21,14,12,2403,2405,2432,7],"questionIndicies":[47,33,22,20,10,8,16,36,0,40],"judgmentIndicies":[0,3,1,6,5,2,4],"internal_node_id":"0.0-2.0-4.0","time_elapsed":104517,"trial_index":6,"trial_type":"survey-likert","responses":"{\"Q0\":\"0\",\"Q1\":\"0\",\"Q2\":\"0\",\"Q3\":\"0\",\"Q4\":\"0\",\"Q5\":\"0\",\"Q6\":\"0\"}","rt":12165},{"questionScores":[2390,2410,28,21,14,12,2403,2405,2432,7],"questionIndicies":[47,33,22,20,10,8,16,36,0,40],"judgmentIndicies":[0,3,1,6,5,2,4],"internal_node_id":"0.0-2.0-5.0","time_elapsed":118140,"trial_index":7,"trial_type":"survey-likert","responses":"{\"Q0\":\"3\",\"Q1\":\"0\",\"Q2\":\"0\",\"Q3\":\"0\",\"Q4\":\"0\",\"Q5\":\"0\",\"Q6\":\"0\"}","rt":12590},{"questionScores":[2390,2410,28,21,14,12,2403,2405,2432,7],"questionIndicies":[47,33,22,20,10,8,16,36,0,40],"judgmentIndicies":[0,3,1,6,5,2,4],"internal_node_id":"0.0-2.0-6.0","time_elapsed":133646,"trial_index":8,"trial_type":"survey-likert","responses":"{\"Q0\":\"3\",\"Q1\":\"3\",\"Q2\":\"1\",\"Q3\":\"2\",\"Q4\":\"0\",\"Q5\":\"0\",\"Q6\":\"6\"}","rt":14483},{"questionScores":[2390,2410,28,21,14,12,2403,2405,2432,7],"questionIndicies":[47,33,22,20,10,8,16,36,0,40],"judgmentIndicies":[0,3,1,6,5,2,4],"internal_node_id":"0.0-2.0-7.0","time_elapsed":146622,"trial_index":9,"trial_type":"survey-likert","responses":"{\"Q0\":\"3\",\"Q1\":\"3\",\"Q2\":\"3\",\"Q3\":\"3\",\"Q4\":\"1\",\"Q5\":\"1\",\"Q6\":\"4\"}","rt":11928},{"questionScores":[2390,2410,28,21,14,12,2403,2405,2432,7],"questionIndicies":[47,33,22,20,10,8,16,36,0,40],"judgmentIndicies":[0,3,1,6,5,2,4],"internal_node_id":"0.0-2.0-8.0","time_elapsed":163385,"trial_index":10,"trial_type":"survey-likert","responses":"{\"Q0\":\"6\",\"Q1\":\"6\",\"Q2\":\"0\",\"Q3\":\"3\",\"Q4\":\"0\",\"Q5\":\"3\",\"Q6\":\"6\"}","rt":15736},{"questionScores":[2390,2410,28,21,14,12,2403,2405,2432,7],"questionIndicies":[47,33,22,20,10,8,16,36,0,40],"judgmentIndicies":[0,3,1,6,5,2,4],"internal_node_id":"0.0-2.0-9.0","time_elapsed":182704,"trial_index":11,"trial_type":"survey-likert","responses":"{\"Q0\":\"6\",\"Q1\":\"6\",\"Q2\":\"0\",\"Q3\":\"3\",\"Q4\":\"6\",\"Q5\":\"3\",\"Q6\":\"6\"}","rt":18293},{"questionScores":[2390,2410,28,21,14,12,2403,2405,2432,7],"questionIndicies":[47,33,22,20,10,8,16,36,0,40],"judgmentIndicies":[0,3,1,6,5,2,4],"internal_node_id":"0.0-3.0","time_elapsed":186253,"trial_index":12,"trial_type":"instructions","rt":2546,"view_history":"[{\"page_index\":0,\"viewing_time\":2545}]"},{"questionScores":[2390,2410,28,21,14,12,2403,2405,2432,7],"questionIndicies":[47,33,22,20,10,8,16,36,0,40],"judgmentIndicies":[0,3,1,6,5,2,4],"internal_node_id":"0.0-4.0","time_elapsed":211033,"trial_index":13,"trial_type":"survey-multi-choose","responses":"{\"Q0\":\"Reveal Answer\",\"Q1\":\"Keep Hidden\",\"Q2\":\"Reveal Answer\",\"Q3\":\"Reveal Answer\",\"Q4\":\"Keep Hidden\",\"Q5\":\"Keep Hidden\",\"Q6\":\"Keep Hidden\",\"Q7\":\"Keep Hidden\",\"Q8\":\"Reveal Answer\",\"Q9\":\"Reveal Answer\"}","rt":23583},{"questionScores":[2390,2410,28,21,14,12,2403,2405,2432,7],"questionIndicies":[47,33,22,20,10,8,16,36,0,40],"judgmentIndicies":[0,3,1,6,5,2,4],"internal_node_id":"0.0-5.0","time_elapsed":230746,"trial_index":14,"trial_type":"instructions","rt":18694,"view_history":"[{\"page_index\":0,\"viewing_time\":18692}]"}],"__v":0}
{"_id":{"$oid":"5a638edbcafab600042a66c1"},"data":[{"questionScores":[2419,26,2379,11,-3,2418,2411,32,37,2417],"questionIndicies":[48,45,20,30,25,32,29,23,21,17],"judgmentIndicies":[3,4,2,5,1,0,6],"internal_node_id":"0.0-0.0","time_elapsed":5134,"trial_index":0,"trial_type":"survey-multi-choice","responses":"{\"Q0\":\"I consent to participate\"}","rt":5117},{"questionScores":[2419,26,2379,11,-3,2418,2411,32,37,2417],"questionIndicies":[48,45,20,30,25,32,29,23,21,17],"judgmentIndicies":[3,4,2,5,1,0,6],"internal_node_id":"0.0-1.0","time_elapsed":7273,"trial_index":1,"trial_type":"instructions","rt":1137,"view_history":"[{\"page_index\":0,\"viewing_time\":1136}]"},{"questionScores":[2419,26,2379,11,-3,2418,2411,32,37,2417],"questionIndicies":[48,45,20,30,25,32,29,23,21,17],"judgmentIndicies":[3,4,2,5,1,0,6],"internal_node_id":"0.0-2.0-0.0","time_elapsed":24968,"trial_index":2,"trial_type":"survey-likert","responses":"{\"Q0\":\"4\",\"Q1\":\"4\",\"Q2\":\"4\",\"Q3\":\"3\",\"Q4\":\"4\",\"Q5\":\"4\",\"Q6\":\"4\"}","rt":16677},{"questionScores":[2419,26,2379,11,-3,2418,2411,32,37,2417],"questionIndicies":[48,45,20,30,25,32,29,23,21,17],"judgmentIndicies":[3,4,2,5,1,0,6],"internal_node_id":"0.0-2.0-1.0","time_elapsed":39774,"trial_index":3,"trial_type":"survey-likert","responses":"{\"Q0\":\"5\",\"Q1\":\"4\",\"Q2\":\"5\",\"Q3\":\"4\",\"Q4\":\"4\",\"Q5\":\"4\",\"Q6\":\"4\"}","rt":13791},{"questionScores":[2419,26,2379,11,-3,2418,2411,32,37,2417],"questionIndicies":[48,45,20,30,25,32,29,23,21,17],"judgmentIndicies":[3,4,2,5,1,0,6],"internal_node_id":"0.0-2.0-2.0","time_elapsed":54740,"trial_index":4,"trial_type":"survey-likert","responses":"{\"Q0\":\"5\",\"Q1\":\"5\",\"Q2\":\"4\",\"Q3\":\"5\",\"Q4\":\"5\",\"Q5\":\"5\",\"Q6\":\"4\"}","rt":13192},{"questionScores":[2419,26,2379,11,-3,2418,2411,32,37,2417],"questionIndicies":[48,45,20,30,25,32,29,23,21,17],"judgmentIndicies":[3,4,2,5,1,0,6],"internal_node_id":"0.0-2.0-3.0","time_elapsed":93788,"trial_index":5,"trial_type":"survey-likert","responses":"{\"Q0\":\"5\",\"Q1\":\"4\",\"Q2\":\"5\",\"Q3\":\"5\",\"Q4\":\"4\",\"Q5\":\"5\",\"Q6\":\"5\"}","rt":38038},{"questionScores":[2419,26,2379,11,-3,2418,2411,32,37,2417],"questionIndicies":[48,45,20,30,25,32,29,23,21,17],"judgmentIndicies":[3,4,2,5,1,0,6],"internal_node_id":"0.0-2.0-4.0","time_elapsed":121571,"trial_index":6,"trial_type":"survey-likert","responses":"{\"Q0\":\"3\",\"Q1\":\"3\",\"Q2\":\"4\",\"Q3\":\"3\",\"Q4\":\"4\",\"Q5\":\"4\",\"Q6\":\"3\"}","rt":26773},{"questionScores":[2419,26,2379,11,-3,2418,2411,32,37,2417],"questionIndicies":[48,45,20,30,25,32,29,23,21,17],"judgmentIndicies":[3,4,2,5,1,0,6],"internal_node_id":"0.0-2.0-5.0","time_elapsed":133268,"trial_index":7,"trial_type":"survey-likert","responses":"{\"Q0\":\"5\",\"Q1\":\"4\",\"Q2\":\"4\",\"Q3\":\"4\",\"Q4\":\"5\",\"Q5\":\"5\",\"Q6\":\"5\"}","rt":10683},{"questionScores":[2419,26,2379,11,-3,2418,2411,32,37,2417],"questionIndicies":[48,45,20,30,25,32,29,23,21,17],"judgmentIndicies":[3,4,2,5,1,0,6],"internal_node_id":"0.0-2.0-6.0","time_elapsed":148952,"trial_index":8,"trial_type":"survey-likert","responses":"{\"Q0\":\"5\",\"Q1\":\"4\",\"Q2\":\"4\",\"Q3\":\"4\",\"Q4\":\"4\",\"Q5\":\"5\",\"Q6\":\"5\"}","rt":14674},{"questionScores":[2419,26,2379,11,-3,2418,2411,32,37,2417],"questionIndicies":[48,45,20,30,25,32,29,23,21,17],"judgmentIndicies":[3,4,2,5,1,0,6],"internal_node_id":"0.0-2.0-7.0","time_elapsed":161826,"trial_index":9,"trial_type":"survey-likert","responses":"{\"Q0\":\"5\",\"Q1\":\"4\",\"Q2\":\"5\",\"Q3\":\"4\",\"Q4\":\"4\",\"Q5\":\"3\",\"Q6\":\"4\"}","rt":11861},{"questionScores":[2419,26,2379,11,-3,2418,2411,32,37,2417],"questionIndicies":[48,45,20,30,25,32,29,23,21,17],"judgmentIndicies":[3,4,2,5,1,0,6],"internal_node_id":"0.0-2.0-8.0","time_elapsed":177821,"trial_index":10,"trial_type":"survey-likert","responses":"{\"Q0\":\"5\",\"Q1\":\"5\",\"Q2\":\"4\",\"Q3\":\"5\",\"Q4\":\"5\",\"Q5\":\"4\",\"Q6\":\"4\"}","rt":14984},{"questionScores":[2419,26,2379,11,-3,2418,2411,32,37,2417],"questionIndicies":[48,45,20,30,25,32,29,23,21,17],"judgmentIndicies":[3,4,2,5,1,0,6],"internal_node_id":"0.0-2.0-9.0","time_elapsed":192662,"trial_index":11,"trial_type":"survey-likert","responses":"{\"Q0\":\"5\",\"Q1\":\"5\",\"Q2\":\"5\",\"Q3\":\"5\",\"Q4\":\"4\",\"Q5\":\"4\",\"Q6\":\"5\"}","rt":13832},{"questionScores":[2419,26,2379,11,-3,2418,2411,32,37,2417],"questionIndicies":[48,45,20,30,25,32,29,23,21,17],"judgmentIndicies":[3,4,2,5,1,0,6],"internal_node_id":"0.0-3.0","time_elapsed":246271,"trial_index":12,"trial_type":"instructions","rt":51732,"view_history":"[{\"page_index\":0,\"viewing_time\":51731}]"},{"questionScores":[2419,26,2379,11,-3,2418,2411,32,37,2417],"questionIndicies":[48,45,20,30,25,32,29,23,21,17],"judgmentIndicies":[3,4,2,5,1,0,6],"internal_node_id":"0.0-4.0","time_elapsed":272316,"trial_index":13,"trial_type":"survey-multi-choose","responses":"{\"Q0\":\"Reveal Answer\",\"Q1\":\"Keep Hidden\",\"Q2\":\"Reveal Answer\",\"Q3\":\"Keep Hidden\",\"Q4\":\"Keep Hidden\",\"Q5\":\"Keep Hidden\",\"Q6\":\"Reveal Answer\",\"Q7\":\"Reveal Answer\",\"Q8\":\"Keep Hidden\",\"Q9\":\"Reveal Answer\"}","rt":25002},{"questionScores":[2419,26,2379,11,-3,2418,2411,32,37,2417],"questionIndicies":[48,45,20,30,25,32,29,23,21,17],"judgmentIndicies":[3,4,2,5,1,0,6],"internal_node_id":"0.0-5.0","time_elapsed":276880,"trial_index":14,"trial_type":"instructions","rt":3539,"view_history":"[{\"page_index\":0,\"viewing_time\":3538}]"}],"__v":0}
{"_id":{"$oid":"5a638eddcafab600042a66c2"},"data":[{"questionScores":[2403,2388,2391,17,2398,41,21,33,17,2394],"questionIndicies":[30,10,41,23,49,45,42,32,0,1],"judgmentIndicies":[2,5,4,1,3,0,6],"internal_node_id":"0.0-0.0","time_elapsed":3079,"trial_index":0,"trial_type":"survey-multi-choice","responses":"{\"Q0\":\"I consent to participate\"}","rt":3065},{"questionScores":[2403,2388,2391,17,2398,41,21,33,17,2394],"questionIndicies":[30,10,41,23,49,45,42,32,0,1],"judgmentIndicies":[2,5,4,1,3,0,6],"internal_node_id":"0.0-1.0","time_elapsed":7119,"trial_index":1,"trial_type":"instructions","rt":3034,"view_history":"[{\"page_index\":0,\"viewing_time\":3033}]"},{"questionScores":[2403,2388,2391,17,2398,41,21,33,17,2394],"questionIndicies":[30,10,41,23,49,45,42,32,0,1],"judgmentIndicies":[2,5,4,1,3,0,6],"internal_node_id":"0.0-2.0-0.0","time_elapsed":46315,"trial_index":2,"trial_type":"survey-likert","responses":"{\"Q0\":\"3\",\"Q1\":\"2\",\"Q2\":\"2\",\"Q3\":\"0\",\"Q4\":\"4\",\"Q5\":\"4\",\"Q6\":\"2\"}","rt":38187},{"questionScores":[2403,2388,2391,17,2398,41,21,33,17,2394],"questionIndicies":[30,10,41,23,49,45,42,32,0,1],"judgmentIndicies":[2,5,4,1,3,0,6],"internal_node_id":"0.0-2.0-1.0","time_elapsed":66162,"trial_index":3,"trial_type":"survey-likert","responses":"{\"Q0\":\"3\",\"Q1\":\"4\",\"Q2\":\"4\",\"Q3\":\"0\",\"Q4\":\"3\",\"Q5\":\"2\",\"Q6\":\"1\"}","rt":18839},{"questionScores":[2403,2388,2391,17,2398,41,21,33,17,2394],"questionIndicies":[30,10,41,23,49,45,42,32,0,1],"judgmentIndicies":[2,5,4,1,3,0,6],"internal_node_id":"0.0-2.0-2.0","time_elapsed":87259,"trial_index":4,"trial_type":"survey-likert","responses":"{\"Q0\":\"3\",\"Q1\":\"2\",\"Q2\":\"5\",\"Q3\":\"0\",\"Q4\":\"3\",\"Q5\":\"3\",\"Q6\":\"2\"}","rt":20087},{"questionScores":[2403,2388,2391,17,2398,41,21,33,17,2394],"questionIndicies":[30,10,41,23,49,45,42,32,0,1],"judgmentIndicies":[2,5,4,1,3,0,6],"internal_node_id":"0.0-2.0-3.0","time_elapsed":118425,"trial_index":5,"trial_type":"survey-likert","responses":"{\"Q0\":\"3\",\"Q1\":\"4\",\"Q2\":\"4\",\"Q3\":\"0\",\"Q4\":\"0\",\"Q5\":\"4\",\"Q6\":\"2\"}","rt":30155},{"questionScores":[2403,2388,2391,17,2398,41,21,33,17,2394],"questionIndicies":[30,10,41,23,49,45,42,32,0,1],"judgmentIndicies":[2,5,4,1,3,0,6],"internal_node_id":"0.0-2.0-4.0","time_elapsed":154415,"trial_index":6,"trial_type":"survey-likert","responses":"{\"Q0\":\"3\",\"Q1\":\"3\",\"Q2\":\"3\",\"Q3\":\"0\",\"Q4\":\"3\",\"Q5\":\"3\",\"Q6\":\"1\"}","rt":34978},{"questionScores":[2403,2388,2391,17,2398,41,21,33,17,2394],"questionIndicies":[30,10,41,23,49,45,42,32,0,1],"judgmentIndicies":[2,5,4,1,3,0,6],"internal_node_id":"0.0-2.0-5.0","time_elapsed":178994,"trial_index":7,"trial_type":"survey-likert","responses":"{\"Q0\":\"1\",\"Q1\":\"1\",\"Q2\":\"3\",\"Q3\":\"0\",\"Q4\":\"0\",\"Q5\":\"1\",\"Q6\":\"1\"}","rt":23568},{"questionScores":[2403,2388,2391,17,2398,41,21,33,17,2394],"questionIndicies":[30,10,41,23,49,45,42,32,0,1],"judgmentIndicies":[2,5,4,1,3,0,6],"internal_node_id":"0.0-2.0-6.0","time_elapsed":202259,"trial_index":8,"trial_type":"survey-likert","responses":"{\"Q0\":\"3\",\"Q1\":\"0\",\"Q2\":\"4\",\"Q3\":\"0\",\"Q4\":\"0\",\"Q5\":\"3\",\"Q6\":\"1\"}","rt":22253},{"questionScores":[2403,2388,2391,17,2398,41,21,33,17,2394],"questionIndicies":[30,10,41,23,49,45,42,32,0,1],"judgmentIndicies":[2,5,4,1,3,0,6],"internal_node_id":"0.0-2.0-7.0","time_elapsed":225499,"trial_index":9,"trial_type":"survey-likert","responses":"{\"Q0\":\"3\",\"Q1\":\"3\",\"Q2\":\"4\",\"Q3\":\"0\",\"Q4\":\"0\",\"Q5\":\"3\",\"Q6\":\"1\"}","rt":22232},{"questionScores":[2403,2388,2391,17,2398,41,21,33,17,2394],"questionIndicies":[30,10,41,23,49,45,42,32,0,1],"judgmentIndicies":[2,5,4,1,3,0,6],"internal_node_id":"0.0-2.0-8.0","time_elapsed":244085,"trial_index":10,"trial_type":"survey-likert","responses":"{\"Q0\":\"3\",\"Q1\":\"4\",\"Q2\":\"4\",\"Q3\":\"0\",\"Q4\":\"0\",\"Q5\":\"5\",\"Q6\":\"2\"}","rt":17579},{"questionScores":[2403,2388,2391,17,2398,41,21,33,17,2394],"questionIndicies":[30,10,41,23,49,45,42,32,0,1],"judgmentIndicies":[2,5,4,1,3,0,6],"internal_node_id":"0.0-2.0-9.0","time_elapsed":269605,"trial_index":11,"trial_type":"survey-likert","responses":"{\"Q0\":\"3\",\"Q1\":\"2\",\"Q2\":\"4\",\"Q3\":\"0\",\"Q4\":\"3\",\"Q5\":\"4\",\"Q6\":\"3\"}","rt":24509},{"questionScores":[2403,2388,2391,17,2398,41,21,33,17,2394],"questionIndicies":[30,10,41,23,49,45,42,32,0,1],"judgmentIndicies":[2,5,4,1,3,0,6],"internal_node_id":"0.0-3.0","time_elapsed":278687,"trial_index":12,"trial_type":"instructions","rt":8078,"view_history":"[{\"page_index\":0,\"viewing_time\":8077}]"},{"questionScores":[2403,2388,2391,17,2398,41,21,33,17,2394],"questionIndicies":[30,10,41,23,49,45,42,32,0,1],"judgmentIndicies":[2,5,4,1,3,0,6],"internal_node_id":"0.0-4.0","time_elapsed":312486,"trial_index":13,"trial_type":"survey-multi-choose","responses":"{\"Q0\":\"Keep Hidden\",\"Q1\":\"Keep Hidden\",\"Q2\":\"Keep Hidden\",\"Q3\":\"Reveal Answer\",\"Q4\":\"Keep Hidden\",\"Q5\":\"Keep Hidden\",\"Q6\":\"Reveal Answer\",\"Q7\":\"Reveal Answer\",\"Q8\":\"Reveal Answer\",\"Q9\":\"Reveal Answer\"}","rt":32780},{"questionScores":[2403,2388,2391,17,2398,41,21,33,17,2394],"questionIndicies":[30,10,41,23,49,45,42,32,0,1],"judgmentIndicies":[2,5,4,1,3,0,6],"internal_node_id":"0.0-5.0","time_elapsed":344486,"trial_index":14,"trial_type":"instructions","rt":30992,"view_history":"[{\"page_index\":0,\"viewing_time\":30991}]"}],"__v":0}
{"_id":{"$oid":"5a638eeccafab600042a66c3"},"data":[{"questionScores":[17,2419,2426,23,35,2417,2410,15,20,2394],"questionIndicies":[21,22,28,38,17,1,32,19,35,47],"judgmentIndicies":[5,6,2,3,0,4,1],"internal_node_id":"0.0-0.0","time_elapsed":22977,"trial_index":0,"trial_type":"survey-multi-choice","responses":"{\"Q0\":\"I consent to participate\"}","rt":22920},{"questionScores":[17,2419,2426,23,35,2417,2410,15,20,2394],"questionIndicies":[21,22,28,38,17,1,32,19,35,47],"judgmentIndicies":[5,6,2,3,0,4,1],"internal_node_id":"0.0-1.0","time_elapsed":29141,"trial_index":1,"trial_type":"instructions","rt":5160,"view_history":"[{\"page_index\":0,\"viewing_time\":5146}]"},{"questionScores":[17,2419,2426,23,35,2417,2410,15,20,2394],"questionIndicies":[21,22,28,38,17,1,32,19,35,47],"judgmentIndicies":[5,6,2,3,0,4,1],"internal_node_id":"0.0-2.0-0.0","time_elapsed":55883,"trial_index":2,"trial_type":"survey-likert","responses":"{\"Q0\":\"4\",\"Q1\":\"6\",\"Q2\":\"6\",\"Q3\":\"4\",\"Q4\":\"6\",\"Q5\":\"4\",\"Q6\":\"1\"}","rt":25694},{"questionScores":[17,2419,2426,23,35,2417,2410,15,20,2394],"questionIndicies":[21,22,28,38,17,1,32,19,35,47],"judgmentIndicies":[5,6,2,3,0,4,1],"internal_node_id":"0.0-2.0-1.0","time_elapsed":73362,"trial_index":3,"trial_type":"survey-likert","responses":"{\"Q0\":\"6\",\"Q1\":\"4\",\"Q2\":\"2\",\"Q3\":\"5\",\"Q4\":\"5\",\"Q5\":\"4\",\"Q6\":\"1\"}","rt":16449},{"questionScores":[17,2419,2426,23,35,2417,2410,15,20,2394],"questionIndicies":[21,22,28,38,17,1,32,19,35,47],"judgmentIndicies":[5,6,2,3,0,4,1],"internal_node_id":"0.0-2.0-2.0","time_elapsed":94105,"trial_index":4,"trial_type":"survey-likert","responses":"{\"Q0\":\"6\",\"Q1\":\"3\",\"Q2\":\"5\",\"Q3\":\"6\",\"Q4\":\"1\",\"Q5\":\"3\",\"Q6\":\"2\"}","rt":19705},{"questionScores":[17,2419,2426,23,35,2417,2410,15,20,2394],"questionIndicies":[21,22,28,38,17,1,32,19,35,47],"judgmentIndicies":[5,6,2,3,0,4,1],"internal_node_id":"0.0-2.0-3.0","time_elapsed":113612,"trial_index":5,"trial_type":"survey-likert","responses":"{\"Q0\":\"6\",\"Q1\":\"3\",\"Q2\":\"5\",\"Q3\":\"4\",\"Q4\":\"1\",\"Q5\":\"4\",\"Q6\":\"5\"}","rt":18465},{"questionScores":[17,2419,2426,23,35,2417,2410,15,20,2394],"questionIndicies":[21,22,28,38,17,1,32,19,35,47],"judgmentIndicies":[5,6,2,3,0,4,1],"internal_node_id":"0.0-2.0-4.0","time_elapsed":130473,"trial_index":6,"trial_type":"survey-likert","responses":"{\"Q0\":\"5\",\"Q1\":\"2\",\"Q2\":\"4\",\"Q3\":\"6\",\"Q4\":\"4\",\"Q5\":\"1\",\"Q6\":\"3\"}","rt":15825},{"questionScores":[17,2419,2426,23,35,2417,2410,15,20,2394],"questionIndicies":[21,22,28,38,17,1,32,19,35,47],"judgmentIndicies":[5,6,2,3,0,4,1],"internal_node_id":"0.0-2.0-5.0","time_elapsed":144423,"trial_index":7,"trial_type":"survey-likert","responses":"{\"Q0\":\"6\",\"Q1\":\"6\",\"Q2\":\"3\",\"Q3\":\"4\",\"Q4\":\"1\",\"Q5\":\"4\",\"Q6\":\"2\"}","rt":12910},{"questionScores":[17,2419,2426,23,35,2417,2410,15,20,2394],"questionIndicies":[21,22,28,38,17,1,32,19,35,47],"judgmentIndicies":[5,6,2,3,0,4,1],"internal_node_id":"0.0-2.0-6.0","time_elapsed":156877,"trial_index":8,"trial_type":"survey-likert","responses":"{\"Q0\":\"6\",\"Q1\":\"0\",\"Q2\":\"2\",\"Q3\":\"4\",\"Q4\":\"6\",\"Q5\":\"4\",\"Q6\":\"2\"}","rt":11416},{"questionScores":[17,2419,2426,23,35,2417,2410,15,20,2394],"questionIndicies":[21,22,28,38,17,1,32,19,35,47],"judgmentIndicies":[5,6,2,3,0,4,1],"internal_node_id":"0.0-2.0-7.0","time_elapsed":168433,"trial_index":9,"trial_type":"survey-likert","responses":"{\"Q0\":\"5\",\"Q1\":\"1\",\"Q2\":\"4\",\"Q3\":\"6\",\"Q4\":\"2\",\"Q5\":\"4\",\"Q6\":\"5\"}","rt":10522},{"questionScores":[17,2419,2426,23,35,2417,2410,15,20,2394],"questionIndicies":[21,22,28,38,17,1,32,19,35,47],"judgmentIndicies":[5,6,2,3,0,4,1],"internal_node_id":"0.0-2.0-8.0","time_elapsed":183776,"trial_index":10,"trial_type":"survey-likert","responses":"{\"Q0\":\"2\",\"Q1\":\"2\",\"Q2\":\"4\",\"Q3\":\"0\",\"Q4\":\"2\",\"Q5\":\"5\",\"Q6\":\"0\"}","rt":14311},{"questionScores":[17,2419,2426,23,35,2417,2410,15,20,2394],"questionIndicies":[21,22,28,38,17,1,32,19,35,47],"judgmentIndicies":[5,6,2,3,0,4,1],"internal_node_id":"0.0-2.0-9.0","time_elapsed":196959,"trial_index":11,"trial_type":"survey-likert","responses":"{\"Q0\":\"6\",\"Q1\":\"4\",\"Q2\":\"0\",\"Q3\":\"3\",\"Q4\":\"5\",\"Q5\":\"1\",\"Q6\":\"0\"}","rt":12143},{"questionScores":[17,2419,2426,23,35,2417,2410,15,20,2394],"questionIndicies":[21,22,28,38,17,1,32,19,35,47],"judgmentIndicies":[5,6,2,3,0,4,1],"internal_node_id":"0.0-3.0","time_elapsed":211471,"trial_index":12,"trial_type":"instructions","rt":13508,"view_history":"[{\"page_index\":0,\"viewing_time\":13505}]"},{"questionScores":[17,2419,2426,23,35,2417,2410,15,20,2394],"questionIndicies":[21,22,28,38,17,1,32,19,35,47],"judgmentIndicies":[5,6,2,3,0,4,1],"internal_node_id":"0.0-4.0","time_elapsed":239484,"trial_index":13,"trial_type":"survey-multi-choose","responses":"{\"Q0\":\"Reveal Answer\",\"Q1\":\"Reveal Answer\",\"Q2\":\"Keep Hidden\",\"Q3\":\"Keep Hidden\",\"Q4\":\"Keep Hidden\",\"Q5\":\"Reveal Answer\",\"Q6\":\"Keep Hidden\",\"Q7\":\"Reveal Answer\",\"Q8\":\"Keep Hidden\",\"Q9\":\"Reveal Answer\"}","rt":26945},{"questionScores":[17,2419,2426,23,35,2417,2410,15,20,2394],"questionIndicies":[21,22,28,38,17,1,32,19,35,47],"judgmentIndicies":[5,6,2,3,0,4,1],"internal_node_id":"0.0-5.0","time_elapsed":300580,"trial_index":14,"trial_type":"instructions","rt":60068,"view_history":"[{\"page_index\":0,\"viewing_time\":60064}]"}],"__v":0}
{"_id":{"$oid":"5a638efcaa6585000437acd5"},"data":[{"questionScores":[2399,22,5,2410,32,40,11,2397,2404,2411],"questionIndicies":[24,22,34,8,3,12,27,31,42,36],"judgmentIndicies":[5,1,6,3,0,2,4],"internal_node_id":"0.0-0.0","time_elapsed":16305,"trial_index":0,"trial_type":"survey-multi-choice","responses":"{\"Q0\":\"I consent to participate\"}","rt":16279},{"questionScores":[2399,22,5,2410,32,40,11,2397,2404,2411],"questionIndicies":[24,22,34,8,3,12,27,31,42,36],"judgmentIndicies":[5,1,6,3,0,2,4],"internal_node_id":"0.0-1.0","time_elapsed":22031,"trial_index":1,"trial_type":"instructions","rt":4724,"view_history":"[{\"page_index\":0,\"viewing_time\":4723}]"},{"questionScores":[2399,22,5,2410,32,40,11,2397,2404,2411],"questionIndicies":[24,22,34,8,3,12,27,31,42,36],"judgmentIndicies":[5,1,6,3,0,2,4],"internal_node_id":"0.0-2.0-0.0","time_elapsed":51481,"trial_index":2,"trial_type":"survey-likert","responses":"{\"Q0\":\"4\",\"Q1\":\"2\",\"Q2\":\"2\",\"Q3\":\"3\",\"Q4\":\"4\",\"Q5\":\"4\",\"Q6\":\"3\"}","rt":28441},{"questionScores":[2399,22,5,2410,32,40,11,2397,2404,2411],"questionIndicies":[24,22,34,8,3,12,27,31,42,36],"judgmentIndicies":[5,1,6,3,0,2,4],"internal_node_id":"0.0-2.0-1.0","time_elapsed":74783,"trial_index":3,"trial_type":"survey-likert","responses":"{\"Q0\":\"2\",\"Q1\":\"3\",\"Q2\":\"3\",\"Q3\":\"4\",\"Q4\":\"4\",\"Q5\":\"3\",\"Q6\":\"4\"}","rt":22296},{"questionScores":[2399,22,5,2410,32,40,11,2397,2404,2411],"questionIndicies":[24,22,34,8,3,12,27,31,42,36],"judgmentIndicies":[5,1,6,3,0,2,4],"internal_node_id":"0.0-2.0-2.0","time_elapsed":99894,"trial_index":4,"trial_type":"survey-likert","responses":"{\"Q0\":\"1\",\"Q1\":\"2\",\"Q2\":\"2\",\"Q3\":\"1\",\"Q4\":\"3\",\"Q5\":\"4\",\"Q6\":\"2\"}","rt":24105},{"questionScores":[2399,22,5,2410,32,40,11,2397,2404,2411],"questionIndicies":[24,22,34,8,3,12,27,31,42,36],"judgmentIndicies":[5,1,6,3,0,2,4],"internal_node_id":"0.0-2.0-3.0","time_elapsed":126583,"trial_index":5,"trial_type":"survey-likert","responses":"{\"Q0\":\"2\",\"Q1\":\"2\",\"Q2\":\"3\",\"Q3\":\"4\",\"Q4\":\"4\",\"Q5\":\"4\",\"Q6\":\"2\"}","rt":25682},{"questionScores":[2399,22,5,2410,32,40,11,2397,2404,2411],"questionIndicies":[24,22,34,8,3,12,27,31,42,36],"judgmentIndicies":[5,1,6,3,0,2,4],"internal_node_id":"0.0-2.0-4.0","time_elapsed":145191,"trial_index":6,"trial_type":"survey-likert","responses":"{\"Q0\":\"1\",\"Q1\":\"2\",\"Q2\":\"3\",\"Q3\":\"2\",\"Q4\":\"4\",\"Q5\":\"3\",\"Q6\":\"2\"}","rt":17601},{"questionScores":[2399,22,5,2410,32,40,11,2397,2404,2411],"questionIndicies":[24,22,34,8,3,12,27,31,42,36],"judgmentIndicies":[5,1,6,3,0,2,4],"internal_node_id":"0.0-2.0-5.0","time_elapsed":164463,"trial_index":7,"trial_type":"survey-likert","responses":"{\"Q0\":\"2\",\"Q1\":\"2\",\"Q2\":\"3\",\"Q3\":\"2\",\"Q4\":\"4\",\"Q5\":\"3\",\"Q6\":\"2\"}","rt":18266},{"questionScores":[2399,22,5,2410,32,40,11,2397,2404,2411],"questionIndicies":[24,22,34,8,3,12,27,31,42,36],"judgmentIndicies":[5,1,6,3,0,2,4],"internal_node_id":"0.0-2.0-6.0","time_elapsed":182870,"trial_index":8,"trial_type":"survey-likert","responses":"{\"Q0\":\"2\",\"Q1\":\"2\",\"Q2\":\"3\",\"Q3\":\"2\",\"Q4\":\"4\",\"Q5\":\"4\",\"Q6\":\"2\"}","rt":17401},{"questionScores":[2399,22,5,2410,32,40,11,2397,2404,2411],"questionIndicies":[24,22,34,8,3,12,27,31,42,36],"judgmentIndicies":[5,1,6,3,0,2,4],"internal_node_id":"0.0-2.0-7.0","time_elapsed":200958,"trial_index":9,"trial_type":"survey-likert","responses":"{\"Q0\":\"1\",\"Q1\":\"2\",\"Q2\":\"3\",\"Q3\":\"3\",\"Q4\":\"4\",\"Q5\":\"3\",\"Q6\":\"2\"}","rt":16750},{"questionScores":[2399,22,5,2410,32,40,11,2397,2404,2411],"questionIndicies":[24,22,34,8,3,12,27,31,42,36],"judgmentIndicies":[5,1,6,3,0,2,4],"internal_node_id":"0.0-2.0-8.0","time_elapsed":219429,"trial_index":10,"trial_type":"survey-likert","responses":"{\"Q0\":\"1\",\"Q1\":\"4\",\"Q2\":\"2\",\"Q3\":\"3\",\"Q4\":\"4\",\"Q5\":\"3\",\"Q6\":\"2\"}","rt":17466},{"questionScores":[2399,22,5,2410,32,40,11,2397,2404,2411],"questionIndicies":[24,22,34,8,3,12,27,31,42,36],"judgmentIndicies":[5,1,6,3,0,2,4],"internal_node_id":"0.0-2.0-9.0","time_elapsed":240157,"trial_index":11,"trial_type":"survey-likert","responses":"{\"Q0\":\"1\",\"Q1\":\"2\",\"Q2\":\"3\",\"Q3\":\"4\",\"Q4\":\"5\",\"Q5\":\"4\",\"Q6\":\"3\"}","rt":19720},{"questionScores":[2399,22,5,2410,32,40,11,2397,2404,2411],"questionIndicies":[24,22,34,8,3,12,27,31,42,36],"judgmentIndicies":[5,1,6,3,0,2,4],"internal_node_id":"0.0-3.0","time_elapsed":255276,"trial_index":12,"trial_type":"instructions","rt":14116,"view_history":"[{\"page_index\":0,\"viewing_time\":14116}]"},{"questionScores":[2399,22,5,2410,32,40,11,2397,2404,2411],"questionIndicies":[24,22,34,8,3,12,27,31,42,36],"judgmentIndicies":[5,1,6,3,0,2,4],"internal_node_id":"0.0-4.0","time_elapsed":302373,"trial_index":13,"trial_type":"survey-multi-choose","responses":"{\"Q0\":\"Reveal Answer\",\"Q1\":\"Keep Hidden\",\"Q2\":\"Reveal Answer\",\"Q3\":\"Reveal Answer\",\"Q4\":\"Keep Hidden\",\"Q5\":\"Keep Hidden\",\"Q6\":\"Reveal Answer\",\"Q7\":\"Reveal Answer\",\"Q8\":\"Keep Hidden\",\"Q9\":\"Keep Hidden\"}","rt":46082},{"questionScores":[2399,22,5,2410,32,40,11,2397,2404,2411],"questionIndicies":[24,22,34,8,3,12,27,31,42,36],"judgmentIndicies":[5,1,6,3,0,2,4],"internal_node_id":"0.0-5.0","time_elapsed":371283,"trial_index":14,"trial_type":"instructions","rt":67900,"view_history":"[{\"page_index\":0,\"viewing_time\":67899}]"}],"__v":0}
{"_id":{"$oid":"5a638efdaa6585000437acd6"},"data":[{"questionScores":[2419,2410,22,25,43,2402,27,2409,2410,21],"questionIndicies":[46,32,24,0,26,39,5,31,3,1],"judgmentIndicies":[0,4,5,3,6,1,2],"internal_node_id":"0.0-0.0","time_elapsed":5382,"trial_index":0,"trial_type":"survey-multi-choice","responses":"{\"Q0\":\"I consent to participate\"}","rt":5372},{"questionScores":[2419,2410,22,25,43,2402,27,2409,2410,21],"questionIndicies":[46,32,24,0,26,39,5,31,3,1],"judgmentIndicies":[0,4,5,3,6,1,2],"internal_node_id":"0.0-1.0","time_elapsed":12239,"trial_index":1,"trial_type":"instructions","rt":5855,"view_history":"[{\"page_index\":0,\"viewing_time\":5855}]"},{"questionScores":[2419,2410,22,25,43,2402,27,2409,2410,21],"questionIndicies":[46,32,24,0,26,39,5,31,3,1],"judgmentIndicies":[0,4,5,3,6,1,2],"internal_node_id":"0.0-2.0-0.0","time_elapsed":47767,"trial_index":2,"trial_type":"survey-likert","responses":"{\"Q0\":\"1\",\"Q1\":\"5\",\"Q2\":\"4\",\"Q3\":\"3\",\"Q4\":\"2\",\"Q5\":\"0\",\"Q6\":\"2\"}","rt":34509},{"questionScores":[2419,2410,22,25,43,2402,27,2409,2410,21],"questionIndicies":[46,32,24,0,26,39,5,31,3,1],"judgmentIndicies":[0,4,5,3,6,1,2],"internal_node_id":"0.0-2.0-1.0","time_elapsed":69476,"trial_index":3,"trial_type":"survey-likert","responses":"{\"Q0\":\"2\",\"Q1\":\"4\",\"Q2\":\"3\",\"Q3\":\"4\",\"Q4\":\"4\",\"Q5\":\"1\",\"Q6\":\"2\"}","rt":20679},{"questionScores":[2419,2410,22,25,43,2402,27,2409,2410,21],"questionIndicies":[46,32,24,0,26,39,5,31,3,1],"judgmentIndicies":[0,4,5,3,6,1,2],"internal_node_id":"0.0-2.0-2.0","time_elapsed":90032,"trial_index":4,"trial_type":"survey-likert","responses":"{\"Q0\":\"1\",\"Q1\":\"3\",\"Q2\":\"3\",\"Q3\":\"2\",\"Q4\":\"2\",\"Q5\":\"0\",\"Q6\":\"2\"}","rt":19534},{"questionScores":[2419,2410,22,25,43,2402,27,2409,2410,21],"questionIndicies":[46,32,24,0,26,39,5,31,3,1],"judgmentIndicies":[0,4,5,3,6,1,2],"internal_node_id":"0.0-2.0-3.0","time_elapsed":108000,"trial_index":5,"trial_type":"survey-likert","responses":"{\"Q0\":\"4\",\"Q1\":\"4\",\"Q2\":\"4\",\"Q3\":\"4\",\"Q4\":\"5\",\"Q5\":\"0\",\"Q6\":\"3\"}","rt":16956},{"questionScores":[2419,2410,22,25,43,2402,27,2409,2410,21],"questionIndicies":[46,32,24,0,26,39,5,31,3,1],"judgmentIndicies":[0,4,5,3,6,1,2],"internal_node_id":"0.0-2.0-4.0","time_elapsed":124978,"trial_index":6,"trial_type":"survey-likert","responses":"{\"Q0\":\"5\",\"Q1\":\"2\",\"Q2\":\"3\",\"Q3\":\"4\",\"Q4\":\"4\",\"Q5\":\"0\",\"Q6\":\"3\"}","rt":15955},{"questionScores":[2419,2410,22,25,43,2402,27,2409,2410,21],"questionIndicies":[46,32,24,0,26,39,5,31,3,1],"judgmentIndicies":[0,4,5,3,6,1,2],"internal_node_id":"0.0-2.0-5.0","time_elapsed":142774,"trial_index":7,"trial_type":"survey-likert","responses":"{\"Q0\":\"4\",\"Q1\":\"2\",\"Q2\":\"4\",\"Q3\":\"5\",\"Q4\":\"4\",\"Q5\":\"4\",\"Q6\":\"3\"}","rt":16773},{"questionScores":[2419,2410,22,25,43,2402,27,2409,2410,21],"questionIndicies":[46,32,24,0,26,39,5,31,3,1],"judgmentIndicies":[0,4,5,3,6,1,2],"internal_node_id":"0.0-2.0-6.0","time_elapsed":159463,"trial_index":8,"trial_type":"survey-likert","responses":"{\"Q0\":\"3\",\"Q1\":\"4\",\"Q2\":\"3\",\"Q3\":\"3\",\"Q4\":\"2\",\"Q5\":\"0\",\"Q6\":\"3\"}","rt":15672},{"questionScores":[2419,2410,22,25,43,2402,27,2409,2410,21],"questionIndicies":[46,32,24,0,26,39,5,31,3,1],"judgmentIndicies":[0,4,5,3,6,1,2],"internal_node_id":"0.0-2.0-7.0","time_elapsed":174524,"trial_index":9,"trial_type":"survey-likert","responses":"{\"Q0\":\"1\",\"Q1\":\"1\",\"Q2\":\"2\",\"Q3\":\"2\",\"Q4\":\"1\",\"Q5\":\"0\",\"Q6\":\"1\"}","rt":14044},{"questionScores":[2419,2410,22,25,43,2402,27,2409,2410,21],"questionIndicies":[46,32,24,0,26,39,5,31,3,1],"judgmentIndicies":[0,4,5,3,6,1,2],"internal_node_id":"0.0-2.0-8.0","time_elapsed":190252,"trial_index":10,"trial_type":"survey-likert","responses":"{\"Q0\":\"3\",\"Q1\":\"4\",\"Q2\":\"3\",\"Q3\":\"3\",\"Q4\":\"2\",\"Q5\":\"0\",\"Q6\":\"2\"}","rt":14718},{"questionScores":[2419,2410,22,25,43,2402,27,2409,2410,21],"questionIndicies":[46,32,24,0,26,39,5,31,3,1],"judgmentIndicies":[0,4,5,3,6,1,2],"internal_node_id":"0.0-2.0-9.0","time_elapsed":212253,"trial_index":11,"trial_type":"survey-likert","responses":"{\"Q0\":\"4\",\"Q1\":\"1\",\"Q2\":\"3\",\"Q3\":\"4\",\"Q4\":\"3\",\"Q5\":\"0\",\"Q6\":\"3\"}","rt":20989},{"questionScores":[2419,2410,22,25,43,2402,27,2409,2410,21],"questionIndicies":[46,32,24,0,26,39,5,31,3,1],"judgmentIndicies":[0,4,5,3,6,1,2],"internal_node_id":"0.0-3.0","time_elapsed":223415,"trial_index":12,"trial_type":"instructions","rt":10149,"view_history":"[{\"page_index\":0,\"viewing_time\":10149}]"},{"questionScores":[2419,2410,22,25,43,2402,27,2409,2410,21],"questionIndicies":[46,32,24,0,26,39,5,31,3,1],"judgmentIndicies":[0,4,5,3,6,1,2],"internal_node_id":"0.0-4.0","time_elapsed":254224,"trial_index":13,"trial_type":"survey-multi-choose","responses":"{\"Q0\":\"Keep Hidden\",\"Q1\":\"Reveal Answer\",\"Q2\":\"Keep Hidden\",\"Q3\":\"Reveal Answer\",\"Q4\":\"Reveal Answer\",\"Q5\":\"Keep Hidden\",\"Q6\":\"Keep Hidden\",\"Q7\":\"Keep Hidden\",\"Q8\":\"Reveal Answer\",\"Q9\":\"Reveal Answer\"}","rt":29776},{"questionScores":[2419,2410,22,25,43,2402,27,2409,2410,21],"questionIndicies":[46,32,24,0,26,39,5,31,3,1],"judgmentIndicies":[0,4,5,3,6,1,2],"internal_node_id":"0.0-5.0","time_elapsed":280115,"trial_index":14,"trial_type":"instructions","rt":24870,"view_history":"[{\"page_index\":0,\"viewing_time\":24869}]"}],"__v":0}
{"_id":{"$oid":"5a638efeaa6585000437acd7"},"data":[{"questionScores":[27,31,23,30,2401,2400,2404,30,2421,2414],"questionIndicies":[31,4,0,15,25,20,27,16,49,5],"judgmentIndicies":[5,6,4,2,3,1,0],"internal_node_id":"0.0-0.0","time_elapsed":4406,"trial_index":0,"trial_type":"survey-multi-choice","responses":"{\"Q0\":\"I consent to participate\"}","rt":4400},{"questionScores":[27,31,23,30,2401,2400,2404,30,2421,2414],"questionIndicies":[31,4,0,15,25,20,27,16,49,5],"judgmentIndicies":[5,6,4,2,3,1,0],"internal_node_id":"0.0-1.0","time_elapsed":7165,"trial_index":1,"trial_type":"instructions","rt":1757,"view_history":"[{\"page_index\":0,\"viewing_time\":1756}]"},{"questionScores":[27,31,23,30,2401,2400,2404,30,2421,2414],"questionIndicies":[31,4,0,15,25,20,27,16,49,5],"judgmentIndicies":[5,6,4,2,3,1,0],"internal_node_id":"0.0-2.0-0.0","time_elapsed":45006,"trial_index":2,"trial_type":"survey-likert","responses":"{\"Q0\":\"0\",\"Q1\":\"1\",\"Q2\":\"5\",\"Q3\":\"4\",\"Q4\":\"5\",\"Q5\":\"0\",\"Q6\":\"6\"}","rt":36836},{"questionScores":[27,31,23,30,2401,2400,2404,30,2421,2414],"questionIndicies":[31,4,0,15,25,20,27,16,49,5],"judgmentIndicies":[5,6,4,2,3,1,0],"internal_node_id":"0.0-2.0-1.0","time_elapsed":80472,"trial_index":3,"trial_type":"survey-likert","responses":"{\"Q0\":\"0\",\"Q1\":\"3\",\"Q2\":\"5\",\"Q3\":\"4\",\"Q4\":\"5\",\"Q5\":\"0\",\"Q6\":\"6\"}","rt":34462},{"questionScores":[27,31,23,30,2401,2400,2404,30,2421,2414],"questionIndicies":[31,4,0,15,25,20,27,16,49,5],"judgmentIndicies":[5,6,4,2,3,1,0],"internal_node_id":"0.0-2.0-2.0","time_elapsed":106741,"trial_index":4,"trial_type":"survey-likert","responses":"{\"Q0\":\"1\",\"Q1\":\"5\",\"Q2\":\"5\",\"Q3\":\"3\",\"Q4\":\"4\",\"Q5\":\"1\",\"Q6\":\"6\"}","rt":25264},{"questionScores":[27,31,23,30,2401,2400,2404,30,2421,2414],"questionIndicies":[31,4,0,15,25,20,27,16,49,5],"judgmentIndicies":[5,6,4,2,3,1,0],"internal_node_id":"0.0-2.0-3.0","time_elapsed":138434,"trial_index":5,"trial_type":"survey-likert","responses":"{\"Q0\":\"0\",\"Q1\":\"3\",\"Q2\":\"3\",\"Q3\":\"6\",\"Q4\":\"5\",\"Q5\":\"0\",\"Q6\":\"6\"}","rt":30690},{"questionScores":[27,31,23,30,2401,2400,2404,30,2421,2414],"questionIndicies":[31,4,0,15,25,20,27,16,49,5],"judgmentIndicies":[5,6,4,2,3,1,0],"internal_node_id":"0.0-2.0-4.0","time_elapsed":159003,"trial_index":6,"trial_type":"survey-likert","responses":"{\"Q0\":\"0\",\"Q1\":\"5\",\"Q2\":\"5\",\"Q3\":\"5\",\"Q4\":\"5\",\"Q5\":\"3\",\"Q6\":\"5\"}","rt":19566},{"questionScores":[27,31,23,30,2401,2400,2404,30,2421,2414],"questionIndicies":[31,4,0,15,25,20,27,16,49,5],"judgmentIndicies":[5,6,4,2,3,1,0],"internal_node_id":"0.0-2.0-5.0","time_elapsed":187837,"trial_index":7,"trial_type":"survey-likert","responses":"{\"Q0\":\"0\",\"Q1\":\"6\",\"Q2\":\"4\",\"Q3\":\"6\",\"Q4\":\"6\",\"Q5\":\"0\",\"Q6\":\"6\"}","rt":27829},{"questionScores":[27,31,23,30,2401,2400,2404,30,2421,2414],"questionIndicies":[31,4,0,15,25,20,27,16,49,5],"judgmentIndicies":[5,6,4,2,3,1,0],"internal_node_id":"0.0-2.0-6.0","time_elapsed":211261,"trial_index":8,"trial_type":"survey-likert","responses":"{\"Q0\":\"1\",\"Q1\":\"6\",\"Q2\":\"6\",\"Q3\":\"6\",\"Q4\":\"5\",\"Q5\":\"3\",\"Q6\":\"6\"}","rt":22421},{"questionScores":[27,31,23,30,2401,2400,2404,30,2421,2414],"questionIndicies":[31,4,0,15,25,20,27,16,49,5],"judgmentIndicies":[5,6,4,2,3,1,0],"internal_node_id":"0.0-2.0-7.0","time_elapsed":236107,"trial_index":9,"trial_type":"survey-likert","responses":"{\"Q0\":\"0\",\"Q1\":\"2\",\"Q2\":\"5\",\"Q3\":\"4\",\"Q4\":\"3\",\"Q5\":\"1\",\"Q6\":\"6\"}","rt":23843},{"questionScores":[27,31,23,30,2401,2400,2404,30,2421,2414],"questionIndicies":[31,4,0,15,25,20,27,16,49,5],"judgmentIndicies":[5,6,4,2,3,1,0],"internal_node_id":"0.0-2.0-8.0","time_elapsed":265415,"trial_index":10,"trial_type":"survey-likert","responses":"{\"Q0\":\"0\",\"Q1\":\"6\",\"Q2\":\"6\",\"Q3\":\"6\",\"Q4\":\"5\",\"Q5\":\"0\",\"Q6\":\"6\"}","rt":28305},{"questionScores":[27,31,23,30,2401,2400,2404,30,2421,2414],"questionIndicies":[31,4,0,15,25,20,27,16,49,5],"judgmentIndicies":[5,6,4,2,3,1,0],"internal_node_id":"0.0-2.0-9.0","time_elapsed":291891,"trial_index":11,"trial_type":"survey-likert","responses":"{\"Q0\":\"1\",\"Q1\":\"1\",\"Q2\":\"5\",\"Q3\":\"4\",\"Q4\":\"6\",\"Q5\":\"1\",\"Q6\":\"5\"}","rt":25472},{"questionScores":[27,31,23,30,2401,2400,2404,30,2421,2414],"questionIndicies":[31,4,0,15,25,20,27,16,49,5],"judgmentIndicies":[5,6,4,2,3,1,0],"internal_node_id":"0.0-3.0","time_elapsed":298697,"trial_index":12,"trial_type":"instructions","rt":5805,"view_history":"[{\"page_index\":0,\"viewing_time\":5805}]"},{"questionScores":[27,31,23,30,2401,2400,2404,30,2421,2414],"questionIndicies":[31,4,0,15,25,20,27,16,49,5],"judgmentIndicies":[5,6,4,2,3,1,0],"internal_node_id":"0.0-4.0","time_elapsed":332818,"trial_index":13,"trial_type":"survey-multi-choose","responses":"{\"Q0\":\"Reveal Answer\",\"Q1\":\"Reveal Answer\",\"Q2\":\"Keep Hidden\",\"Q3\":\"Keep Hidden\",\"Q4\":\"Keep Hidden\",\"Q5\":\"Reveal Answer\",\"Q6\":\"Keep Hidden\",\"Q7\":\"Reveal Answer\",\"Q8\":\"Reveal Answer\",\"Q9\":\"Keep Hidden\"}","rt":33107},{"questionScores":[27,31,23,30,2401,2400,2404,30,2421,2414],"questionIndicies":[31,4,0,15,25,20,27,16,49,5],"judgmentIndicies":[5,6,4,2,3,1,0],"internal_node_id":"0.0-5.0","time_elapsed":347085,"trial_index":14,"trial_type":"instructions","rt":13261,"view_history":"[{\"page_index\":0,\"viewing_time\":13261}]"}],"__v":0}
{"_id":{"$oid":"5a638efeaa6585000437acd8"},"data":[{"questionScores":[2420,1,2395,2424,2396,19,2392,21,30,34],"questionIndicies":[8,45,36,4,42,33,30,35,1,0],"judgmentIndicies":[0,1,6,2,5,4,3],"internal_node_id":"0.0-0.0","time_elapsed":2921,"trial_index":0,"trial_type":"survey-multi-choice","responses":"{\"Q0\":\"I consent to participate\"}","rt":2913},{"questionScores":[2420,1,2395,2424,2396,19,2392,21,30,34],"questionIndicies":[8,45,36,4,42,33,30,35,1,0],"judgmentIndicies":[0,1,6,2,5,4,3],"internal_node_id":"0.0-1.0","time_elapsed":8743,"trial_index":1,"trial_type":"instructions","rt":4820,"view_history":"[{\"page_index\":0,\"viewing_time\":4820}]"},{"questionScores":[2420,1,2395,2424,2396,19,2392,21,30,34],"questionIndicies":[8,45,36,4,42,33,30,35,1,0],"judgmentIndicies":[0,1,6,2,5,4,3],"internal_node_id":"0.0-2.0-0.0","time_elapsed":43145,"trial_index":2,"trial_type":"survey-likert","responses":"{\"Q0\":\"5\",\"Q1\":\"0\",\"Q2\":\"0\",\"Q3\":\"1\",\"Q4\":\"0\",\"Q5\":\"5\",\"Q6\":\"3\"}","rt":33389},{"questionScores":[2420,1,2395,2424,2396,19,2392,21,30,34],"questionIndicies":[8,45,36,4,42,33,30,35,1,0],"judgmentIndicies":[0,1,6,2,5,4,3],"internal_node_id":"0.0-2.0-1.0","time_elapsed":74020,"trial_index":3,"trial_type":"survey-likert","responses":"{\"Q0\":\"1\",\"Q1\":\"0\",\"Q2\":\"0\",\"Q3\":\"0\",\"Q4\":\"0\",\"Q5\":\"4\",\"Q6\":\"0\"}","rt":29864},{"questionScores":[2420,1,2395,2424,2396,19,2392,21,30,34],"questionIndicies":[8,45,36,4,42,33,30,35,1,0],"judgmentIndicies":[0,1,6,2,5,4,3],"internal_node_id":"0.0-2.0-2.0","time_elapsed":106532,"trial_index":4,"trial_type":"survey-likert","responses":"{\"Q0\":\"1\",\"Q1\":\"3\",\"Q2\":\"0\",\"Q3\":\"0\",\"Q4\":\"3\",\"Q5\":\"5\",\"Q6\":\"4\"}","rt":31505},{"questionScores":[2420,1,2395,2424,2396,19,2392,21,30,34],"questionIndicies":[8,45,36,4,42,33,30,35,1,0],"judgmentIndicies":[0,1,6,2,5,4,3],"internal_node_id":"0.0-2.0-3.0","time_elapsed":165766,"trial_index":5,"trial_type":"survey-likert","responses":"{\"Q0\":\"6\",\"Q1\":\"4\",\"Q2\":\"1\",\"Q3\":\"3\",\"Q4\":\"5\",\"Q5\":\"5\",\"Q6\":\"3\"}","rt":58230},{"questionScores":[2420,1,2395,2424,2396,19,2392,21,30,34],"questionIndicies":[8,45,36,4,42,33,30,35,1,0],"judgmentIndicies":[0,1,6,2,5,4,3],"internal_node_id":"0.0-2.0-4.0","time_elapsed":186708,"trial_index":6,"trial_type":"survey-likert","responses":"{\"Q0\":\"0\",\"Q1\":\"0\",\"Q2\":\"0\",\"Q3\":\"3\",\"Q4\":\"5\",\"Q5\":\"4\",\"Q6\":\"3\"}","rt":19930},{"questionScores":[2420,1,2395,2424,2396,19,2392,21,30,34],"questionIndicies":[8,45,36,4,42,33,30,35,1,0],"judgmentIndicies":[0,1,6,2,5,4,3],"internal_node_id":"0.0-2.0-5.0","time_elapsed":221189,"trial_index":7,"trial_type":"survey-likert","responses":"{\"Q0\":\"0\",\"Q1\":\"0\",\"Q2\":\"0\",\"Q3\":\"0\",\"Q4\":\"1\",\"Q5\":\"5\",\"Q6\":\"1\"}","rt":33477},{"questionScores":[2420,1,2395,2424,2396,19,2392,21,30,34],"questionIndicies":[8,45,36,4,42,33,30,35,1,0],"judgmentIndicies":[0,1,6,2,5,4,3],"internal_node_id":"0.0-2.0-6.0","time_elapsed":247930,"trial_index":8,"trial_type":"survey-likert","responses":"{\"Q0\":\"4\",\"Q1\":\"4\",\"Q2\":\"0\",\"Q3\":\"1\",\"Q4\":\"2\",\"Q5\":\"5\",\"Q6\":\"3\"}","rt":25738},{"questionScores":[2420,1,2395,2424,2396,19,2392,21,30,34],"questionIndicies":[8,45,36,4,42,33,30,35,1,0],"judgmentIndicies":[0,1,6,2,5,4,3],"internal_node_id":"0.0-2.0-7.0","time_elapsed":275617,"trial_index":9,"trial_type":"survey-likert","responses":"{\"Q0\":\"0\",\"Q1\":\"0\",\"Q2\":\"1\",\"Q3\":\"2\",\"Q4\":\"0\",\"Q5\":\"4\",\"Q6\":\"1\"}","rt":26677},{"questionScores":[2420,1,2395,2424,2396,19,2392,21,30,34],"questionIndicies":[8,45,36,4,42,33,30,35,1,0],"judgmentIndicies":[0,1,6,2,5,4,3],"internal_node_id":"0.0-2.0-8.0","time_elapsed":294153,"trial_index":10,"trial_type":"survey-likert","responses":"{\"Q0\":\"0\",\"Q1\":\"0\",\"Q2\":\"0\",\"Q3\":\"0\",\"Q4\":\"0\",\"Q5\":\"3\",\"Q6\":\"1\"}","rt":17526},{"questionScores":[2420,1,2395,2424,2396,19,2392,21,30,34],"questionIndicies":[8,45,36,4,42,33,30,35,1,0],"judgmentIndicies":[0,1,6,2,5,4,3],"internal_node_id":"0.0-2.0-9.0","time_elapsed":320384,"trial_index":11,"trial_type":"survey-likert","responses":"{\"Q0\":\"1\",\"Q1\":\"6\",\"Q2\":\"0\",\"Q3\":\"1\",\"Q4\":\"0\",\"Q5\":\"5\",\"Q6\":\"1\"}","rt":25219},{"questionScores":[2420,1,2395,2424,2396,19,2392,21,30,34],"questionIndicies":[8,45,36,4,42,33,30,35,1,0],"judgmentIndicies":[0,1,6,2,5,4,3],"internal_node_id":"0.0-3.0","time_elapsed":330458,"trial_index":12,"trial_type":"instructions","rt":9073,"view_history":"[{\"page_index\":0,\"viewing_time\":9073}]"},{"questionScores":[2420,1,2395,2424,2396,19,2392,21,30,34],"questionIndicies":[8,45,36,4,42,33,30,35,1,0],"judgmentIndicies":[0,1,6,2,5,4,3],"internal_node_id":"0.0-4.0","time_elapsed":361634,"trial_index":13,"trial_type":"survey-multi-choose","responses":"{\"Q0\":\"Reveal Answer\",\"Q1\":\"Keep Hidden\",\"Q2\":\"Keep Hidden\",\"Q3\":\"Reveal Answer\",\"Q4\":\"Reveal Answer\",\"Q5\":\"Keep Hidden\",\"Q6\":\"Reveal Answer\",\"Q7\":\"Keep Hidden\",\"Q8\":\"Reveal Answer\",\"Q9\":\"Keep Hidden\"}","rt":30161},{"questionScores":[2420,1,2395,2424,2396,19,2392,21,30,34],"questionIndicies":[8,45,36,4,42,33,30,35,1,0],"judgmentIndicies":[0,1,6,2,5,4,3],"internal_node_id":"0.0-5.0","time_elapsed":370050,"trial_index":14,"trial_type":"instructions","rt":7410,"view_history":"[{\"page_index\":0,\"viewing_time\":7409}]"}],"__v":0}
{"_id":{"$oid":"5a638f01aa6585000437acd9"},"data":[{"questionScores":[19,2405,19,21,2386,26,2394,20,2410,2401],"questionIndicies":[28,43,21,31,33,13,42,27,6,46],"judgmentIndicies":[5,3,6,2,0,1,4],"internal_node_id":"0.0-0.0","time_elapsed":2958,"trial_index":0,"trial_type":"survey-multi-choice","responses":"{\"Q0\":\"I consent to participate\"}","rt":2944},{"questionScores":[19,2405,19,21,2386,26,2394,20,2410,2401],"questionIndicies":[28,43,21,31,33,13,42,27,6,46],"judgmentIndicies":[5,3,6,2,0,1,4],"internal_node_id":"0.0-1.0","time_elapsed":6140,"trial_index":1,"trial_type":"instructions","rt":2180,"view_history":"[{\"page_index\":0,\"viewing_time\":2180}]"},{"questionScores":[19,2405,19,21,2386,26,2394,20,2410,2401],"questionIndicies":[28,43,21,31,33,13,42,27,6,46],"judgmentIndicies":[5,3,6,2,0,1,4],"internal_node_id":"0.0-2.0-0.0","time_elapsed":31130,"trial_index":2,"trial_type":"survey-likert","responses":"{\"Q0\":\"2\",\"Q1\":\"1\",\"Q2\":\"0\",\"Q3\":\"1\",\"Q4\":\"3\",\"Q5\":\"1\",\"Q6\":\"3\"}","rt":23977},{"questionScores":[19,2405,19,21,2386,26,2394,20,2410,2401],"questionIndicies":[28,43,21,31,33,13,42,27,6,46],"judgmentIndicies":[5,3,6,2,0,1,4],"internal_node_id":"0.0-2.0-1.0","time_elapsed":81112,"trial_index":3,"trial_type":"survey-likert","responses":"{\"Q0\":\"0\",\"Q1\":\"5\",\"Q2\":\"1\",\"Q3\":\"2\",\"Q4\":\"1\",\"Q5\":\"4\",\"Q6\":\"5\"}","rt":48969},{"questionScores":[19,2405,19,21,2386,26,2394,20,2410,2401],"questionIndicies":[28,43,21,31,33,13,42,27,6,46],"judgmentIndicies":[5,3,6,2,0,1,4],"internal_node_id":"0.0-2.0-2.0","time_elapsed":98806,"trial_index":4,"trial_type":"survey-likert","responses":"{\"Q0\":\"0\",\"Q1\":\"0\",\"Q2\":\"1\",\"Q3\":\"2\",\"Q4\":\"3\",\"Q5\":\"0\",\"Q6\":\"3\"}","rt":16682},{"questionScores":[19,2405,19,21,2386,26,2394,20,2410,2401],"questionIndicies":[28,43,21,31,33,13,42,27,6,46],"judgmentIndicies":[5,3,6,2,0,1,4],"internal_node_id":"0.0-2.0-3.0","time_elapsed":128620,"trial_index":5,"trial_type":"survey-likert","responses":"{\"Q0\":\"2\",\"Q1\":\"0\",\"Q2\":\"0\",\"Q3\":\"1\",\"Q4\":\"2\",\"Q5\":\"0\",\"Q6\":\"1\"}","rt":28800},{"questionScores":[19,2405,19,21,2386,26,2394,20,2410,2401],"questionIndicies":[28,43,21,31,33,13,42,27,6,46],"judgmentIndicies":[5,3,6,2,0,1,4],"internal_node_id":"0.0-2.0-4.0","time_elapsed":161005,"trial_index":6,"trial_type":"survey-likert","responses":"{\"Q0\":\"3\",\"Q1\":\"6\",\"Q2\":\"0\",\"Q3\":\"0\",\"Q4\":\"5\",\"Q5\":\"0\",\"Q6\":\"4\"}","rt":31375},{"questionScores":[19,2405,19,21,2386,26,2394,20,2410,2401],"questionIndicies":[28,43,21,31,33,13,42,27,6,46],"judgmentIndicies":[5,3,6,2,0,1,4],"internal_node_id":"0.0-2.0-5.0","time_elapsed":190845,"trial_index":7,"trial_type":"survey-likert","responses":"{\"Q0\":\"2\",\"Q1\":\"1\",\"Q2\":\"0\",\"Q3\":\"1\",\"Q4\":\"2\",\"Q5\":\"4\",\"Q6\":\"3\"}","rt":28832},{"questionScores":[19,2405,19,21,2386,26,2394,20,2410,2401],"questionIndicies":[28,43,21,31,33,13,42,27,6,46],"judgmentIndicies":[5,3,6,2,0,1,4],"internal_node_id":"0.0-2.0-6.0","time_elapsed":209788,"trial_index":8,"trial_type":"survey-likert","responses":"{\"Q0\":\"6\",\"Q1\":\"6\",\"Q2\":\"0\",\"Q3\":\"0\",\"Q4\":\"1\",\"Q5\":\"0\",\"Q6\":\"3\"}","rt":17936},{"questionScores":[19,2405,19,21,2386,26,2394,20,2410,2401],"questionIndicies":[28,43,21,31,33,13,42,27,6,46],"judgmentIndicies":[5,3,6,2,0,1,4],"internal_node_id":"0.0-2.0-7.0","time_elapsed":230405,"trial_index":9,"trial_type":"survey-likert","responses":"{\"Q0\":\"0\",\"Q1\":\"0\",\"Q2\":\"0\",\"Q3\":\"0\",\"Q4\":\"0\",\"Q5\":\"1\",\"Q6\":\"2\"}","rt":19613},{"questionScores":[19,2405,19,21,2386,26,2394,20,2410,2401],"questionIndicies":[28,43,21,31,33,13,42,27,6,46],"judgmentIndicies":[5,3,6,2,0,1,4],"internal_node_id":"0.0-2.0-8.0","time_elapsed":252782,"trial_index":10,"trial_type":"survey-likert","responses":"{\"Q0\":\"4\",\"Q1\":\"6\",\"Q2\":\"2\",\"Q3\":\"3\",\"Q4\":\"4\",\"Q5\":\"0\",\"Q6\":\"2\"}","rt":21368},{"questionScores":[19,2405,19,21,2386,26,2394,20,2410,2401],"questionIndicies":[28,43,21,31,33,13,42,27,6,46],"judgmentIndicies":[5,3,6,2,0,1,4],"internal_node_id":"0.0-2.0-9.0","time_elapsed":277228,"trial_index":11,"trial_type":"survey-likert","responses":"{\"Q0\":\"6\",\"Q1\":\"6\",\"Q2\":\"2\",\"Q3\":\"0\",\"Q4\":\"2\",\"Q5\":\"0\",\"Q6\":\"3\"}","rt":23435},{"questionScores":[19,2405,19,21,2386,26,2394,20,2410,2401],"questionIndicies":[28,43,21,31,33,13,42,27,6,46],"judgmentIndicies":[5,3,6,2,0,1,4],"internal_node_id":"0.0-3.0","time_elapsed":282395,"trial_index":12,"trial_type":"instructions","rt":4165,"view_history":"[{\"page_index\":0,\"viewing_time\":4165}]"},{"questionScores":[19,2405,19,21,2386,26,2394,20,2410,2401],"questionIndicies":[28,43,21,31,33,13,42,27,6,46],"judgmentIndicies":[5,3,6,2,0,1,4],"internal_node_id":"0.0-4.0","time_elapsed":322709,"trial_index":13,"trial_type":"survey-multi-choose","responses":"{\"Q0\":\"Keep Hidden\",\"Q1\":\"Keep Hidden\",\"Q2\":\"Reveal Answer\",\"Q3\":\"Reveal Answer\",\"Q4\":\"Reveal Answer\",\"Q5\":\"Keep Hidden\",\"Q6\":\"Keep Hidden\",\"Q7\":\"Keep Hidden\",\"Q8\":\"Reveal Answer\",\"Q9\":\"Reveal Answer\"}","rt":39288},{"questionScores":[19,2405,19,21,2386,26,2394,20,2410,2401],"questionIndicies":[28,43,21,31,33,13,42,27,6,46],"judgmentIndicies":[5,3,6,2,0,1,4],"internal_node_id":"0.0-5.0","time_elapsed":368458,"trial_index":14,"trial_type":"instructions","rt":44734,"view_history":"[{\"page_index\":0,\"viewing_time\":44733}]"}],"__v":0}
{"_id":{"$oid":"5a638f0eaa6585000437acda"},"data":[{"questionScores":[2412,44,2403,2418,24,2397,28,22,22,2411],"questionIndicies":[46,34,23,47,20,33,4,45,12,0],"judgmentIndicies":[0,5,4,6,1,2,3],"internal_node_id":"0.0-0.0","time_elapsed":21930,"trial_index":0,"trial_type":"survey-multi-choice","responses":"{\"Q0\":\"I consent to participate\"}","rt":21920},{"questionScores":[2412,44,2403,2418,24,2397,28,22,22,2411],"questionIndicies":[46,34,23,47,20,33,4,45,12,0],"judgmentIndicies":[0,5,4,6,1,2,3],"internal_node_id":"0.0-1.0","time_elapsed":32678,"trial_index":1,"trial_type":"instructions","rt":9746,"view_history":"[{\"page_index\":0,\"viewing_time\":9745}]"},{"questionScores":[2412,44,2403,2418,24,2397,28,22,22,2411],"questionIndicies":[46,34,23,47,20,33,4,45,12,0],"judgmentIndicies":[0,5,4,6,1,2,3],"internal_node_id":"0.0-2.0-0.0","time_elapsed":70342,"trial_index":2,"trial_type":"survey-likert","responses":"{\"Q0\":\"5\",\"Q1\":\"4\",\"Q2\":\"3\",\"Q3\":\"3\",\"Q4\":\"0\",\"Q5\":\"2\",\"Q6\":\"3\"}","rt":36650},{"questionScores":[2412,44,2403,2418,24,2397,28,22,22,2411],"questionIndicies":[46,34,23,47,20,33,4,45,12,0],"judgmentIndicies":[0,5,4,6,1,2,3],"internal_node_id":"0.0-2.0-1.0","time_elapsed":90615,"trial_index":3,"trial_type":"survey-likert","responses":"{\"Q0\":\"1\",\"Q1\":\"2\",\"Q2\":\"4\",\"Q3\":\"1\",\"Q4\":\"0\",\"Q5\":\"0\",\"Q6\":\"1\"}","rt":19259},{"questionScores":[2412,44,2403,2418,24,2397,28,22,22,2411],"questionIndicies":[46,34,23,47,20,33,4,45,12,0],"judgmentIndicies":[0,5,4,6,1,2,3],"internal_node_id":"0.0-2.0-2.0","time_elapsed":113104,"trial_index":4,"trial_type":"survey-likert","responses":"{\"Q0\":\"5\",\"Q1\":\"2\",\"Q2\":\"5\",\"Q3\":\"3\",\"Q4\":\"0\",\"Q5\":\"2\",\"Q6\":\"4\"}","rt":21475},{"questionScores":[2412,44,2403,2418,24,2397,28,22,22,2411],"questionIndicies":[46,34,23,47,20,33,4,45,12,0],"judgmentIndicies":[0,5,4,6,1,2,3],"internal_node_id":"0.0-2.0-3.0","time_elapsed":132698,"trial_index":5,"trial_type":"survey-likert","responses":"{\"Q0\":\"3\",\"Q1\":\"4\",\"Q2\":\"3\",\"Q3\":\"2\",\"Q4\":\"1\",\"Q5\":\"2\",\"Q6\":\"1\"}","rt":18588},{"questionScores":[2412,44,2403,2418,24,2397,28,22,22,2411],"questionIndicies":[46,34,23,47,20,33,4,45,12,0],"judgmentIndicies":[0,5,4,6,1,2,3],"internal_node_id":"0.0-2.0-4.0","time_elapsed":158371,"trial_index":6,"trial_type":"survey-likert","responses":"{\"Q0\":\"6\",\"Q1\":\"4\",\"Q2\":\"6\",\"Q3\":\"5\",\"Q4\":\"0\",\"Q5\":\"6\",\"Q6\":\"1\"}","rt":24653},{"questionScores":[2412,44,2403,2418,24,2397,28,22,22,2411],"questionIndicies":[46,34,23,47,20,33,4,45,12,0],"judgmentIndicies":[0,5,4,6,1,2,3],"internal_node_id":"0.0-2.0-5.0","time_elapsed":177373,"trial_index":7,"trial_type":"survey-likert","responses":"{\"Q0\":\"6\",\"Q1\":\"2\",\"Q2\":\"6\",\"Q3\":\"4\",\"Q4\":\"0\",\"Q5\":\"4\",\"Q6\":\"5\"}","rt":17988},{"questionScores":[2412,44,2403,2418,24,2397,28,22,22,2411],"questionIndicies":[46,34,23,47,20,33,4,45,12,0],"judgmentIndicies":[0,5,4,6,1,2,3],"internal_node_id":"0.0-2.0-6.0","time_elapsed":196209,"trial_index":8,"trial_type":"survey-likert","responses":"{\"Q0\":\"2\",\"Q1\":\"1\",\"Q2\":\"4\",\"Q3\":\"2\",\"Q4\":\"2\",\"Q5\":\"1\",\"Q6\":\"0\"}","rt":17825},{"questionScores":[2412,44,2403,2418,24,2397,28,22,22,2411],"questionIndicies":[46,34,23,47,20,33,4,45,12,0],"judgmentIndicies":[0,5,4,6,1,2,3],"internal_node_id":"0.0-2.0-7.0","time_elapsed":217866,"trial_index":9,"trial_type":"survey-likert","responses":"{\"Q0\":\"2\",\"Q1\":\"1\",\"Q2\":\"4\",\"Q3\":\"1\",\"Q4\":\"0\",\"Q5\":\"0\",\"Q6\":\"0\"}","rt":20638},{"questionScores":[2412,44,2403,2418,24,2397,28,22,22,2411],"questionIndicies":[46,34,23,47,20,33,4,45,12,0],"judgmentIndicies":[0,5,4,6,1,2,3],"internal_node_id":"0.0-2.0-8.0","time_elapsed":236247,"trial_index":10,"trial_type":"survey-likert","responses":"{\"Q0\":\"4\",\"Q1\":\"2\",\"Q2\":\"3\",\"Q3\":\"2\",\"Q4\":\"0\",\"Q5\":\"1\",\"Q6\":\"0\"}","rt":17367},{"questionScores":[2412,44,2403,2418,24,2397,28,22,22,2411],"questionIndicies":[46,34,23,47,20,33,4,45,12,0],"judgmentIndicies":[0,5,4,6,1,2,3],"internal_node_id":"0.0-2.0-9.0","time_elapsed":254473,"trial_index":11,"trial_type":"survey-likert","responses":"{\"Q0\":\"6\",\"Q1\":\"0\",\"Q2\":\"3\",\"Q3\":\"4\",\"Q4\":\"0\",\"Q5\":\"2\",\"Q6\":\"5\"}","rt":17209},{"questionScores":[2412,44,2403,2418,24,2397,28,22,22,2411],"questionIndicies":[46,34,23,47,20,33,4,45,12,0],"judgmentIndicies":[0,5,4,6,1,2,3],"internal_node_id":"0.0-3.0","time_elapsed":267194,"trial_index":12,"trial_type":"instructions","rt":11719,"view_history":"[{\"page_index\":0,\"viewing_time\":11718}]"},{"questionScores":[2412,44,2403,2418,24,2397,28,22,22,2411],"questionIndicies":[46,34,23,47,20,33,4,45,12,0],"judgmentIndicies":[0,5,4,6,1,2,3],"internal_node_id":"0.0-4.0","time_elapsed":300378,"trial_index":13,"trial_type":"survey-multi-choose","responses":"{\"Q0\":\"Reveal Answer\",\"Q1\":\"Keep Hidden\",\"Q2\":\"Reveal Answer\",\"Q3\":\"Keep Hidden\",\"Q4\":\"Reveal Answer\",\"Q5\":\"Keep Hidden\",\"Q6\":\"Keep Hidden\",\"Q7\":\"Keep Hidden\",\"Q8\":\"Reveal Answer\",\"Q9\":\"Reveal Answer\"}","rt":32159},{"questionScores":[2412,44,2403,2418,24,2397,28,22,22,2411],"questionIndicies":[46,34,23,47,20,33,4,45,12,0],"judgmentIndicies":[0,5,4,6,1,2,3],"internal_node_id":"0.0-5.0","time_elapsed":390657,"trial_index":14,"trial_type":"instructions","rt":89255,"view_history":"[{\"page_index\":0,\"viewing_time\":89252}]"}],"__v":0}
