{"_id":{"$oid":"5a6b8e34d960b6000480c59a"},"data":[{"questionScores":[27,24,2402,34,22,2398,2405,2407,2401,23],"questionIndicies":[4,27,10,44,40,45,12,17,3,24],"judgmentIndicies":[0,1],"internal_node_id":"0.0-0.0","time_elapsed":2383,"trial_index":0,"trial_type":"survey-multi-choice","responses":"{\"Q0\":\"I consent to participate\"}","rt":2364},{"questionScores":[27,24,2402,34,22,2398,2405,2407,2401,23],"questionIndicies":[4,27,10,44,40,45,12,17,3,24],"judgmentIndicies":[0,1],"internal_node_id":"0.0-1.0","time_elapsed":4591,"trial_index":1,"trial_type":"instructions","rt":1205,"view_history":"[{\"page_index\":0,\"viewing_time\":1201}]"},{"questionScores":[27,24,2402,34,22,2398,2405,2407,2401,23],"questionIndicies":[4,27,10,44,40,45,12,17,3,24],"judgmentIndicies":[0,1],"internal_node_id":"0.0-2.0","time_elapsed":6717,"trial_index":2,"trial_type":"instructions","rt":1122,"view_history":"[{\"page_index\":0,\"viewing_time\":1117}]"},{"questionScores":[27,24,2402,34,22,2398,2405,2407,2401,23],"questionIndicies":[4,27,10,44,40,45,12,17,3,24],"judgmentIndicies":[0,1],"internal_node_id":"0.0-3.0-0.0","time_elapsed":13133,"trial_index":3,"trial_type":"survey-likert","responses":"{\"Q0\":\"4\",\"Q1\":\"5\"}","rt":5381},{"questionScores":[27,24,2402,34,22,2398,2405,2407,2401,23],"questionIndicies":[4,27,10,44,40,45,12,17,3,24],"judgmentIndicies":[0,1],"internal_node_id":"0.0-3.0-1.0","time_elapsed":18075,"trial_index":4,"trial_type":"survey-likert","responses":"{\"Q0\":\"6\",\"Q1\":\"4\"}","rt":3914},{"questionScores":[27,24,2402,34,22,2398,2405,2407,2401,23],"questionIndicies":[4,27,10,44,40,45,12,17,3,24],"judgmentIndicies":[0,1],"internal_node_id":"0.0-3.0-2.0","time_elapsed":23429,"trial_index":5,"trial_type":"survey-likert","responses":"{\"Q0\":\"4\",\"Q1\":\"3\"}","rt":4338},{"questionScores":[27,24,2402,34,22,2398,2405,2407,2401,23],"questionIndicies":[4,27,10,44,40,45,12,17,3,24],"judgmentIndicies":[0,1],"internal_node_id":"0.0-3.0-3.0","time_elapsed":29104,"trial_index":6,"trial_type":"survey-likert","responses":"{\"Q0\":\"2\",\"Q1\":\"2\"}","rt":4662},{"questionScores":[27,24,2402,34,22,2398,2405,2407,2401,23],"questionIndicies":[4,27,10,44,40,45,12,17,3,24],"judgmentIndicies":[0,1],"internal_node_id":"0.0-3.0-4.0","time_elapsed":33794,"trial_index":7,"trial_type":"survey-likert","responses":"{\"Q0\":\"2\",\"Q1\":\"2\"}","rt":3676},{"questionScores":[27,24,2402,34,22,2398,2405,2407,2401,23],"questionIndicies":[4,27,10,44,40,45,12,17,3,24],"judgmentIndicies":[0,1],"internal_node_id":"0.0-3.0-5.0","time_elapsed":37798,"trial_index":8,"trial_type":"survey-likert","responses":"{\"Q0\":\"3\",\"Q1\":\"2\"}","rt":2992},{"questionScores":[27,24,2402,34,22,2398,2405,2407,2401,23],"questionIndicies":[4,27,10,44,40,45,12,17,3,24],"judgmentIndicies":[0,1],"internal_node_id":"0.0-3.0-6.0","time_elapsed":41813,"trial_index":9,"trial_type":"survey-likert","responses":"{\"Q0\":\"4\",\"Q1\":\"3\"}","rt":3005},{"questionScores":[27,24,2402,34,22,2398,2405,2407,2401,23],"questionIndicies":[4,27,10,44,40,45,12,17,3,24],"judgmentIndicies":[0,1],"internal_node_id":"0.0-3.0-7.0","time_elapsed":45301,"trial_index":10,"trial_type":"survey-likert","responses":"{\"Q0\":\"2\",\"Q1\":\"3\"}","rt":2478},{"questionScores":[27,24,2402,34,22,2398,2405,2407,2401,23],"questionIndicies":[4,27,10,44,40,45,12,17,3,24],"judgmentIndicies":[0,1],"internal_node_id":"0.0-3.0-8.0","time_elapsed":48448,"trial_index":11,"trial_type":"survey-likert","responses":"{\"Q0\":\"3\",\"Q1\":\"4\"}","rt":2137},{"questionScores":[27,24,2402,34,22,2398,2405,2407,2401,23],"questionIndicies":[4,27,10,44,40,45,12,17,3,24],"judgmentIndicies":[0,1],"internal_node_id":"0.0-3.0-9.0","time_elapsed":51598,"trial_index":12,"trial_type":"survey-likert","responses":"{\"Q0\":\"3\",\"Q1\":\"2\"}","rt":2135},{"questionScores":[27,24,2402,34,22,2398,2405,2407,2401,23],"questionIndicies":[4,27,10,44,40,45,12,17,3,24],"judgmentIndicies":[0,1],"internal_node_id":"0.0-4.0","time_elapsed":55636,"trial_index":13,"trial_type":"instructions","rt":3036,"view_history":"[{\"page_index\":0,\"viewing_time\":3035}]"},{"questionScores":[27,24,2402,34,22,2398,2405,2407,2401,23],"questionIndicies":[4,27,10,44,40,45,12,17,3,24],"judgmentIndicies":[0,1],"internal_node_id":"0.0-5.0","time_elapsed":69947,"trial_index":14,"trial_type":"survey-multi-choose","responses":"{\"Q0\":\"Reveal Answer\",\"Q1\":\"Reveal Answer\",\"Q2\":\"Keep Hidden\",\"Q3\":\"Reveal Answer\",\"Q4\":\"Keep Hidden\",\"Q5\":\"Keep Hidden\",\"Q6\":\"Keep Hidden\",\"Q7\":\"Keep Hidden\",\"Q8\":\"Reveal Answer\",\"Q9\":\"Reveal Answer\"}","rt":13195},{"questionScores":[27,24,2402,34,22,2398,2405,2407,2401,23],"questionIndicies":[4,27,10,44,40,45,12,17,3,24],"judgmentIndicies":[0,1],"internal_node_id":"0.0-6.0","time_elapsed":73942,"trial_index":15,"trial_type":"instructions","rt":2927,"view_history":"[{\"page_index\":0,\"viewing_time\":2921}]"}],"__v":0}
{"_id":{"$oid":"5a6b8e3dd960b6000480c59b"},"data":[{"questionScores":[30,2408,2405,15,26,2424,2401,2418,46,24],"questionIndicies":[4,9,46,3,16,48,2,45,49,29],"judgmentIndicies":[0,1],"internal_node_id":"0.0-0.0","time_elapsed":4383,"trial_index":0,"trial_type":"survey-multi-choice","responses":"{\"Q0\":\"I consent to participate\"}","rt":4372},{"questionScores":[30,2408,2405,15,26,2424,2401,2418,46,24],"questionIndicies":[4,9,46,3,16,48,2,45,49,29],"judgmentIndicies":[0,1],"internal_node_id":"0.0-1.0","time_elapsed":8573,"trial_index":1,"trial_type":"instructions","rt":3188,"view_history":"[{\"page_index\":0,\"viewing_time\":3186}]"},{"questionScores":[30,2408,2405,15,26,2424,2401,2418,46,24],"questionIndicies":[4,9,46,3,16,48,2,45,49,29],"judgmentIndicies":[0,1],"internal_node_id":"0.0-2.0","time_elapsed":20093,"trial_index":2,"trial_type":"instructions","rt":10518,"view_history":"[{\"page_index\":0,\"viewing_time\":10516}]"},{"questionScores":[30,2408,2405,15,26,2424,2401,2418,46,24],"questionIndicies":[4,9,46,3,16,48,2,45,49,29],"judgmentIndicies":[0,1],"internal_node_id":"0.0-3.0-0.0","time_elapsed":30439,"trial_index":3,"trial_type":"survey-likert","responses":"{\"Q0\":\"0\",\"Q1\":\"0\"}","rt":9321},{"questionScores":[30,2408,2405,15,26,2424,2401,2418,46,24],"questionIndicies":[4,9,46,3,16,48,2,45,49,29],"judgmentIndicies":[0,1],"internal_node_id":"0.0-3.0-1.0","time_elapsed":35096,"trial_index":4,"trial_type":"survey-likert","responses":"{\"Q0\":\"0\",\"Q1\":\"0\"}","rt":3647},{"questionScores":[30,2408,2405,15,26,2424,2401,2418,46,24],"questionIndicies":[4,9,46,3,16,48,2,45,49,29],"judgmentIndicies":[0,1],"internal_node_id":"0.0-3.0-2.0","time_elapsed":39510,"trial_index":5,"trial_type":"survey-likert","responses":"{\"Q0\":\"0\",\"Q1\":\"0\"}","rt":3404},{"questionScores":[30,2408,2405,15,26,2424,2401,2418,46,24],"questionIndicies":[4,9,46,3,16,48,2,45,49,29],"judgmentIndicies":[0,1],"internal_node_id":"0.0-3.0-3.0","time_elapsed":44510,"trial_index":6,"trial_type":"survey-likert","responses":"{\"Q0\":\"0\",\"Q1\":\"0\"}","rt":3991},{"questionScores":[30,2408,2405,15,26,2424,2401,2418,46,24],"questionIndicies":[4,9,46,3,16,48,2,45,49,29],"judgmentIndicies":[0,1],"internal_node_id":"0.0-3.0-4.0","time_elapsed":48437,"trial_index":7,"trial_type":"survey-likert","responses":"{\"Q0\":\"0\",\"Q1\":\"0\"}","rt":2920},{"questionScores":[30,2408,2405,15,26,2424,2401,2418,46,24],"questionIndicies":[4,9,46,3,16,48,2,45,49,29],"judgmentIndicies":[0,1],"internal_node_id":"0.0-3.0-5.0","time_elapsed":52503,"trial_index":8,"trial_type":"survey-likert","responses":"{\"Q0\":\"0\",\"Q1\":\"0\"}","rt":3058},{"questionScores":[30,2408,2405,15,26,2424,2401,2418,46,24],"questionIndicies":[4,9,46,3,16,48,2,45,49,29],"judgmentIndicies":[0,1],"internal_node_id":"0.0-3.0-6.0","time_elapsed":58828,"trial_index":9,"trial_type":"survey-likert","responses":"{\"Q0\":\"0\",\"Q1\":\"6\"}","rt":5319},{"questionScores":[30,2408,2405,15,26,2424,2401,2418,46,24],"questionIndicies":[4,9,46,3,16,48,2,45,49,29],"judgmentIndicies":[0,1],"internal_node_id":"0.0-3.0-7.0","time_elapsed":62997,"trial_index":10,"trial_type":"survey-likert","responses":"{\"Q0\":\"0\",\"Q1\":\"0\"}","rt":3162},{"questionScores":[30,2408,2405,15,26,2424,2401,2418,46,24],"questionIndicies":[4,9,46,3,16,48,2,45,49,29],"judgmentIndicies":[0,1],"internal_node_id":"0.0-3.0-8.0","time_elapsed":66774,"trial_index":11,"trial_type":"survey-likert","responses":"{\"Q0\":\"0\",\"Q1\":\"0\"}","rt":2769},{"questionScores":[30,2408,2405,15,26,2424,2401,2418,46,24],"questionIndicies":[4,9,46,3,16,48,2,45,49,29],"judgmentIndicies":[0,1],"internal_node_id":"0.0-3.0-9.0","time_elapsed":70271,"trial_index":12,"trial_type":"survey-likert","responses":"{\"Q0\":\"0\",\"Q1\":\"0\"}","rt":2490},{"questionScores":[30,2408,2405,15,26,2424,2401,2418,46,24],"questionIndicies":[4,9,46,3,16,48,2,45,49,29],"judgmentIndicies":[0,1],"internal_node_id":"0.0-4.0","time_elapsed":80453,"trial_index":13,"trial_type":"instructions","rt":9180,"view_history":"[{\"page_index\":0,\"viewing_time\":9179}]"},{"questionScores":[30,2408,2405,15,26,2424,2401,2418,46,24],"questionIndicies":[4,9,46,3,16,48,2,45,49,29],"judgmentIndicies":[0,1],"internal_node_id":"0.0-5.0","time_elapsed":96518,"trial_index":14,"trial_type":"survey-multi-choose","responses":"{\"Q0\":\"Reveal Answer\",\"Q1\":\"Reveal Answer\",\"Q2\":\"Reveal Answer\",\"Q3\":\"Reveal Answer\",\"Q4\":\"Reveal Answer\",\"Q5\":\"Keep Hidden\",\"Q6\":\"Keep Hidden\",\"Q7\":\"Keep Hidden\",\"Q8\":\"Keep Hidden\",\"Q9\":\"Keep Hidden\"}","rt":15012},{"questionScores":[30,2408,2405,15,26,2424,2401,2418,46,24],"questionIndicies":[4,9,46,3,16,48,2,45,49,29],"judgmentIndicies":[0,1],"internal_node_id":"0.0-6.0","time_elapsed":103511,"trial_index":15,"trial_type":"instructions","rt":5950,"view_history":"[{\"page_index\":0,\"viewing_time\":5946}]"}],"__v":0}
{"_id":{"$oid":"5a6b8e43d960b6000480c59c"},"data":[{"questionScores":[2393,43,16,4,2418,2402,22,2403,2403,27],"questionIndicies":[1,7,44,0,41,42,6,38,4,40],"judgmentIndicies":[0,1],"internal_node_id":"0.0-0.0","time_elapsed":2837,"trial_index":0,"trial_type":"survey-multi-choice","responses":"{\"Q0\":\"I consent to participate\"}","rt":2827},{"questionScores":[2393,43,16,4,2418,2402,22,2403,2403,27],"questionIndicies":[1,7,44,0,41,42,6,38,4,40],"judgmentIndicies":[0,1],"internal_node_id":"0.0-1.0","time_elapsed":7868,"trial_index":1,"trial_type":"instructions","rt":4030,"view_history":"[{\"page_index\":0,\"viewing_time\":4029}]"},{"questionScores":[2393,43,16,4,2418,2402,22,2403,2403,27],"questionIndicies":[1,7,44,0,41,42,6,38,4,40],"judgmentIndicies":[0,1],"internal_node_id":"0.0-2.0","time_elapsed":16795,"trial_index":2,"trial_type":"instructions","rt":7926,"view_history":"[{\"page_index\":0,\"viewing_time\":7925}]"},{"questionScores":[2393,43,16,4,2418,2402,22,2403,2403,27],"questionIndicies":[1,7,44,0,41,42,6,38,4,40],"judgmentIndicies":[0,1],"internal_node_id":"0.0-3.0-0.0","time_elapsed":24501,"trial_index":3,"trial_type":"survey-likert","responses":"{\"Q0\":\"1\",\"Q1\":\"1\"}","rt":6702},{"questionScores":[2393,43,16,4,2418,2402,22,2403,2403,27],"questionIndicies":[1,7,44,0,41,42,6,38,4,40],"judgmentIndicies":[0,1],"internal_node_id":"0.0-3.0-1.0","time_elapsed":28755,"trial_index":4,"trial_type":"survey-likert","responses":"{\"Q0\":\"1\",\"Q1\":\"1\"}","rt":3252},{"questionScores":[2393,43,16,4,2418,2402,22,2403,2403,27],"questionIndicies":[1,7,44,0,41,42,6,38,4,40],"judgmentIndicies":[0,1],"internal_node_id":"0.0-3.0-2.0","time_elapsed":33946,"trial_index":5,"trial_type":"survey-likert","responses":"{\"Q0\":\"4\",\"Q1\":\"3\"}","rt":4188},{"questionScores":[2393,43,16,4,2418,2402,22,2403,2403,27],"questionIndicies":[1,7,44,0,41,42,6,38,4,40],"judgmentIndicies":[0,1],"internal_node_id":"0.0-3.0-3.0","time_elapsed":39243,"trial_index":6,"trial_type":"survey-likert","responses":"{\"Q0\":\"2\",\"Q1\":\"2\"}","rt":4293},{"questionScores":[2393,43,16,4,2418,2402,22,2403,2403,27],"questionIndicies":[1,7,44,0,41,42,6,38,4,40],"judgmentIndicies":[0,1],"internal_node_id":"0.0-3.0-4.0","time_elapsed":42610,"trial_index":7,"trial_type":"survey-likert","responses":"{\"Q0\":\"5\",\"Q1\":\"5\"}","rt":2365},{"questionScores":[2393,43,16,4,2418,2402,22,2403,2403,27],"questionIndicies":[1,7,44,0,41,42,6,38,4,40],"judgmentIndicies":[0,1],"internal_node_id":"0.0-3.0-5.0","time_elapsed":46273,"trial_index":8,"trial_type":"survey-likert","responses":"{\"Q0\":\"2\",\"Q1\":\"2\"}","rt":2661},{"questionScores":[2393,43,16,4,2418,2402,22,2403,2403,27],"questionIndicies":[1,7,44,0,41,42,6,38,4,40],"judgmentIndicies":[0,1],"internal_node_id":"0.0-3.0-6.0","time_elapsed":49546,"trial_index":9,"trial_type":"survey-likert","responses":"{\"Q0\":\"5\",\"Q1\":\"5\"}","rt":2270},{"questionScores":[2393,43,16,4,2418,2402,22,2403,2403,27],"questionIndicies":[1,7,44,0,41,42,6,38,4,40],"judgmentIndicies":[0,1],"internal_node_id":"0.0-3.0-7.0","time_elapsed":52634,"trial_index":10,"trial_type":"survey-likert","responses":"{\"Q0\":\"5\",\"Q1\":\"5\"}","rt":2085},{"questionScores":[2393,43,16,4,2418,2402,22,2403,2403,27],"questionIndicies":[1,7,44,0,41,42,6,38,4,40],"judgmentIndicies":[0,1],"internal_node_id":"0.0-3.0-8.0","time_elapsed":57921,"trial_index":11,"trial_type":"survey-likert","responses":"{\"Q0\":\"6\",\"Q1\":\"6\"}","rt":4285},{"questionScores":[2393,43,16,4,2418,2402,22,2403,2403,27],"questionIndicies":[1,7,44,0,41,42,6,38,4,40],"judgmentIndicies":[0,1],"internal_node_id":"0.0-3.0-9.0","time_elapsed":60804,"trial_index":12,"trial_type":"survey-likert","responses":"{\"Q0\":\"6\",\"Q1\":\"6\"}","rt":1880},{"questionScores":[2393,43,16,4,2418,2402,22,2403,2403,27],"questionIndicies":[1,7,44,0,41,42,6,38,4,40],"judgmentIndicies":[0,1],"internal_node_id":"0.0-4.0","time_elapsed":63725,"trial_index":13,"trial_type":"instructions","rt":1920,"view_history":"[{\"page_index\":0,\"viewing_time\":1920}]"},{"questionScores":[2393,43,16,4,2418,2402,22,2403,2403,27],"questionIndicies":[1,7,44,0,41,42,6,38,4,40],"judgmentIndicies":[0,1],"internal_node_id":"0.0-5.0","time_elapsed":81117,"trial_index":14,"trial_type":"survey-multi-choose","responses":"{\"Q0\":\"Keep Hidden\",\"Q1\":\"Keep Hidden\",\"Q2\":\"Reveal Answer\",\"Q3\":\"Keep Hidden\",\"Q4\":\"Reveal Answer\",\"Q5\":\"Keep Hidden\",\"Q6\":\"Keep Hidden\",\"Q7\":\"Reveal Answer\",\"Q8\":\"Reveal Answer\",\"Q9\":\"Reveal Answer\"}","rt":16380},{"questionScores":[2393,43,16,4,2418,2402,22,2403,2403,27],"questionIndicies":[1,7,44,0,41,42,6,38,4,40],"judgmentIndicies":[0,1],"internal_node_id":"0.0-6.0","time_elapsed":86756,"trial_index":15,"trial_type":"instructions","rt":4637,"view_history":"[{\"page_index\":0,\"viewing_time\":4636}]"}],"__v":0}
{"_id":{"$oid":"5a6b8e5fd960b6000480c59d"},"data":[{"questionScores":[2387,29,2403,6,17,2410,25,21,2410,2402],"questionIndicies":[33,25,8,47,15,7,43,16,23,2],"judgmentIndicies":[0,1],"internal_node_id":"0.0-0.0","time_elapsed":20571,"trial_index":0,"trial_type":"survey-multi-choice","responses":"{\"Q0\":\"I consent to participate\"}","rt":20547},{"questionScores":[2387,29,2403,6,17,2410,25,21,2410,2402],"questionIndicies":[33,25,8,47,15,7,43,16,23,2],"judgmentIndicies":[0,1],"internal_node_id":"0.0-1.0","time_elapsed":24451,"trial_index":1,"trial_type":"instructions","rt":2025,"view_history":"[{\"page_index\":0,\"viewing_time\":2023}]"},{"questionScores":[2387,29,2403,6,17,2410,25,21,2410,2402],"questionIndicies":[33,25,8,47,15,7,43,16,23,2],"judgmentIndicies":[0,1],"internal_node_id":"0.0-2.0","time_elapsed":26632,"trial_index":2,"trial_type":"instructions","rt":1180,"view_history":"[{\"page_index\":0,\"viewing_time\":1179}]"},{"questionScores":[2387,29,2403,6,17,2410,25,21,2410,2402],"questionIndicies":[33,25,8,47,15,7,43,16,23,2],"judgmentIndicies":[0,1],"internal_node_id":"0.0-3.0-0.0","time_elapsed":36243,"trial_index":3,"trial_type":"survey-likert","responses":"{\"Q0\":\"3\",\"Q1\":\"4\"}","rt":8604},{"questionScores":[2387,29,2403,6,17,2410,25,21,2410,2402],"questionIndicies":[33,25,8,47,15,7,43,16,23,2],"judgmentIndicies":[0,1],"internal_node_id":"0.0-3.0-1.0","time_elapsed":39737,"trial_index":4,"trial_type":"survey-likert","responses":"{\"Q0\":\"3\",\"Q1\":\"3\"}","rt":2485},{"questionScores":[2387,29,2403,6,17,2410,25,21,2410,2402],"questionIndicies":[33,25,8,47,15,7,43,16,23,2],"judgmentIndicies":[0,1],"internal_node_id":"0.0-3.0-2.0","time_elapsed":44336,"trial_index":5,"trial_type":"survey-likert","responses":"{\"Q0\":\"2\",\"Q1\":\"2\"}","rt":3596},{"questionScores":[2387,29,2403,6,17,2410,25,21,2410,2402],"questionIndicies":[33,25,8,47,15,7,43,16,23,2],"judgmentIndicies":[0,1],"internal_node_id":"0.0-3.0-3.0","time_elapsed":47104,"trial_index":6,"trial_type":"survey-likert","responses":"{\"Q0\":\"1\",\"Q1\":\"1\"}","rt":1764},{"questionScores":[2387,29,2403,6,17,2410,25,21,2410,2402],"questionIndicies":[33,25,8,47,15,7,43,16,23,2],"judgmentIndicies":[0,1],"internal_node_id":"0.0-3.0-4.0","time_elapsed":49735,"trial_index":7,"trial_type":"survey-likert","responses":"{\"Q0\":\"1\",\"Q1\":\"1\"}","rt":1627},{"questionScores":[2387,29,2403,6,17,2410,25,21,2410,2402],"questionIndicies":[33,25,8,47,15,7,43,16,23,2],"judgmentIndicies":[0,1],"internal_node_id":"0.0-3.0-5.0","time_elapsed":52624,"trial_index":8,"trial_type":"survey-likert","responses":"{\"Q0\":\"1\",\"Q1\":\"1\"}","rt":1883},{"questionScores":[2387,29,2403,6,17,2410,25,21,2410,2402],"questionIndicies":[33,25,8,47,15,7,43,16,23,2],"judgmentIndicies":[0,1],"internal_node_id":"0.0-3.0-6.0","time_elapsed":55697,"trial_index":9,"trial_type":"survey-likert","responses":"{\"Q0\":\"1\",\"Q1\":\"1\"}","rt":2068},{"questionScores":[2387,29,2403,6,17,2410,25,21,2410,2402],"questionIndicies":[33,25,8,47,15,7,43,16,23,2],"judgmentIndicies":[0,1],"internal_node_id":"0.0-3.0-7.0","time_elapsed":59578,"trial_index":10,"trial_type":"survey-likert","responses":"{\"Q0\":\"1\",\"Q1\":\"1\"}","rt":2876},{"questionScores":[2387,29,2403,6,17,2410,25,21,2410,2402],"questionIndicies":[33,25,8,47,15,7,43,16,23,2],"judgmentIndicies":[0,1],"internal_node_id":"0.0-3.0-8.0","time_elapsed":72865,"trial_index":11,"trial_type":"survey-likert","responses":"{\"Q0\":\"1\",\"Q1\":\"1\"}","rt":12283},{"questionScores":[2387,29,2403,6,17,2410,25,21,2410,2402],"questionIndicies":[33,25,8,47,15,7,43,16,23,2],"judgmentIndicies":[0,1],"internal_node_id":"0.0-3.0-9.0","time_elapsed":76050,"trial_index":12,"trial_type":"survey-likert","responses":"{\"Q0\":\"1\",\"Q1\":\"1\"}","rt":2178},{"questionScores":[2387,29,2403,6,17,2410,25,21,2410,2402],"questionIndicies":[33,25,8,47,15,7,43,16,23,2],"judgmentIndicies":[0,1],"internal_node_id":"0.0-4.0","time_elapsed":78361,"trial_index":13,"trial_type":"instructions","rt":1310,"view_history":"[{\"page_index\":0,\"viewing_time\":1309}]"},{"questionScores":[2387,29,2403,6,17,2410,25,21,2410,2402],"questionIndicies":[33,25,8,47,15,7,43,16,23,2],"judgmentIndicies":[0,1],"internal_node_id":"0.0-5.0","time_elapsed":102730,"trial_index":14,"trial_type":"survey-multi-choose","responses":"{\"Q0\":\"Keep Hidden\",\"Q1\":\"Keep Hidden\",\"Q2\":\"Keep Hidden\",\"Q3\":\"Keep Hidden\",\"Q4\":\"Keep Hidden\",\"Q5\":\"Reveal Answer\",\"Q6\":\"Reveal Answer\",\"Q7\":\"Reveal Answer\",\"Q8\":\"Reveal Answer\",\"Q9\":\"Reveal Answer\"}","rt":23343},{"questionScores":[2387,29,2403,6,17,2410,25,21,2410,2402],"questionIndicies":[33,25,8,47,15,7,43,16,23,2],"judgmentIndicies":[0,1],"internal_node_id":"0.0-6.0","time_elapsed":106015,"trial_index":15,"trial_type":"instructions","rt":2272,"view_history":"[{\"page_index\":0,\"viewing_time\":2271}]"}],"__v":0}
{"_id":{"$oid":"5a6b8e67d960b6000480c59e"},"data":[{"questionScores":[32,14,2401,2410,2399,25,2404,15,2399,19],"questionIndicies":[46,22,36,4,37,17,26,25,11,10],"judgmentIndicies":[0,1],"internal_node_id":"0.0-0.0","time_elapsed":7812,"trial_index":0,"trial_type":"survey-multi-choice","responses":"{\"Q0\":\"I consent to participate\"}","rt":7766},{"questionScores":[32,14,2401,2410,2399,25,2404,15,2399,19],"questionIndicies":[46,22,36,4,37,17,26,25,11,10],"judgmentIndicies":[0,1],"internal_node_id":"0.0-1.0","time_elapsed":10134,"trial_index":1,"trial_type":"instructions","rt":1321,"view_history":"[{\"page_index\":0,\"viewing_time\":1320}]"},{"questionScores":[32,14,2401,2410,2399,25,2404,15,2399,19],"questionIndicies":[46,22,36,4,37,17,26,25,11,10],"judgmentIndicies":[0,1],"internal_node_id":"0.0-2.0","time_elapsed":12020,"trial_index":2,"trial_type":"instructions","rt":886,"view_history":"[{\"page_index\":0,\"viewing_time\":884}]"},{"questionScores":[32,14,2401,2410,2399,25,2404,15,2399,19],"questionIndicies":[46,22,36,4,37,17,26,25,11,10],"judgmentIndicies":[0,1],"internal_node_id":"0.0-3.0-0.0","time_elapsed":18252,"trial_index":3,"trial_type":"survey-likert","responses":"{\"Q0\":\"3\",\"Q1\":\"2\"}","rt":5216},{"questionScores":[32,14,2401,2410,2399,25,2404,15,2399,19],"questionIndicies":[46,22,36,4,37,17,26,25,11,10],"judgmentIndicies":[0,1],"internal_node_id":"0.0-3.0-1.0","time_elapsed":26195,"trial_index":4,"trial_type":"survey-likert","responses":"{\"Q0\":\"2\",\"Q1\":\"3\"}","rt":5975},{"questionScores":[32,14,2401,2410,2399,25,2404,15,2399,19],"questionIndicies":[46,22,36,4,37,17,26,25,11,10],"judgmentIndicies":[0,1],"internal_node_id":"0.0-3.0-2.0","time_elapsed":31630,"trial_index":5,"trial_type":"survey-likert","responses":"{\"Q0\":\"4\",\"Q1\":\"3\"}","rt":4431},{"questionScores":[32,14,2401,2410,2399,25,2404,15,2399,19],"questionIndicies":[46,22,36,4,37,17,26,25,11,10],"judgmentIndicies":[0,1],"internal_node_id":"0.0-3.0-3.0","time_elapsed":40301,"trial_index":6,"trial_type":"survey-likert","responses":"{\"Q0\":\"4\",\"Q1\":\"3\"}","rt":7666},{"questionScores":[32,14,2401,2410,2399,25,2404,15,2399,19],"questionIndicies":[46,22,36,4,37,17,26,25,11,10],"judgmentIndicies":[0,1],"internal_node_id":"0.0-3.0-4.0","time_elapsed":45330,"trial_index":7,"trial_type":"survey-likert","responses":"{\"Q0\":\"2\",\"Q1\":\"3\"}","rt":4025},{"questionScores":[32,14,2401,2410,2399,25,2404,15,2399,19],"questionIndicies":[46,22,36,4,37,17,26,25,11,10],"judgmentIndicies":[0,1],"internal_node_id":"0.0-3.0-5.0","time_elapsed":49636,"trial_index":8,"trial_type":"survey-likert","responses":"{\"Q0\":\"5\",\"Q1\":\"4\"}","rt":3302},{"questionScores":[32,14,2401,2410,2399,25,2404,15,2399,19],"questionIndicies":[46,22,36,4,37,17,26,25,11,10],"judgmentIndicies":[0,1],"internal_node_id":"0.0-3.0-6.0","time_elapsed":55612,"trial_index":9,"trial_type":"survey-likert","responses":"{\"Q0\":\"2\",\"Q1\":\"1\"}","rt":4973},{"questionScores":[32,14,2401,2410,2399,25,2404,15,2399,19],"questionIndicies":[46,22,36,4,37,17,26,25,11,10],"judgmentIndicies":[0,1],"internal_node_id":"0.0-3.0-7.0","time_elapsed":60111,"trial_index":10,"trial_type":"survey-likert","responses":"{\"Q0\":\"5\",\"Q1\":\"4\"}","rt":3496},{"questionScores":[32,14,2401,2410,2399,25,2404,15,2399,19],"questionIndicies":[46,22,36,4,37,17,26,25,11,10],"judgmentIndicies":[0,1],"internal_node_id":"0.0-3.0-8.0","time_elapsed":64900,"trial_index":11,"trial_type":"survey-likert","responses":"{\"Q0\":\"4\",\"Q1\":\"5\"}","rt":3783},{"questionScores":[32,14,2401,2410,2399,25,2404,15,2399,19],"questionIndicies":[46,22,36,4,37,17,26,25,11,10],"judgmentIndicies":[0,1],"internal_node_id":"0.0-3.0-9.0","time_elapsed":79668,"trial_index":12,"trial_type":"survey-likert","responses":"{\"Q0\":\"4\",\"Q1\":\"3\"}","rt":13757},{"questionScores":[32,14,2401,2410,2399,25,2404,15,2399,19],"questionIndicies":[46,22,36,4,37,17,26,25,11,10],"judgmentIndicies":[0,1],"internal_node_id":"0.0-4.0","time_elapsed":82581,"trial_index":13,"trial_type":"instructions","rt":1911,"view_history":"[{\"page_index\":0,\"viewing_time\":1911}]"},{"questionScores":[32,14,2401,2410,2399,25,2404,15,2399,19],"questionIndicies":[46,22,36,4,37,17,26,25,11,10],"judgmentIndicies":[0,1],"internal_node_id":"0.0-5.0","time_elapsed":108106,"trial_index":14,"trial_type":"survey-multi-choose","responses":"{\"Q0\":\"Reveal Answer\",\"Q1\":\"Reveal Answer\",\"Q2\":\"Reveal Answer\",\"Q3\":\"Reveal Answer\",\"Q4\":\"Reveal Answer\",\"Q5\":\"Keep Hidden\",\"Q6\":\"Keep Hidden\",\"Q7\":\"Keep Hidden\",\"Q8\":\"Keep Hidden\",\"Q9\":\"Keep Hidden\"}","rt":24498},{"questionScores":[32,14,2401,2410,2399,25,2404,15,2399,19],"questionIndicies":[46,22,36,4,37,17,26,25,11,10],"judgmentIndicies":[0,1],"internal_node_id":"0.0-6.0","time_elapsed":118923,"trial_index":15,"trial_type":"instructions","rt":9786,"view_history":"[{\"page_index\":0,\"viewing_time\":9782}]"}],"__v":0}
{"_id":{"$oid":"5a6b8e6ed960b6000480c59f"},"data":[{"questionScores":[19,2419,2405,2421,24,24,13,2394,20,2403],"questionIndicies":[42,8,9,34,41,21,47,7,39,46],"judgmentIndicies":[1,0],"internal_node_id":"0.0-0.0","time_elapsed":3601,"trial_index":0,"trial_type":"survey-multi-choice","responses":"{\"Q0\":\"I consent to participate\"}","rt":3586},{"questionScores":[19,2419,2405,2421,24,24,13,2394,20,2403],"questionIndicies":[42,8,9,34,41,21,47,7,39,46],"judgmentIndicies":[1,0],"internal_node_id":"0.0-1.0","time_elapsed":5889,"trial_index":1,"trial_type":"instructions","rt":1285,"view_history":"[{\"page_index\":0,\"viewing_time\":1284}]"},{"questionScores":[19,2419,2405,2421,24,24,13,2394,20,2403],"questionIndicies":[42,8,9,34,41,21,47,7,39,46],"judgmentIndicies":[1,0],"internal_node_id":"0.0-2.0","time_elapsed":22277,"trial_index":2,"trial_type":"instructions","rt":15387,"view_history":"[{\"page_index\":0,\"viewing_time\":15387}]"},{"questionScores":[19,2419,2405,2421,24,24,13,2394,20,2403],"questionIndicies":[42,8,9,34,41,21,47,7,39,46],"judgmentIndicies":[1,0],"internal_node_id":"0.0-3.0-0.0","time_elapsed":29652,"trial_index":3,"trial_type":"survey-likert","responses":"{\"Q0\":\"1\",\"Q1\":\"0\"}","rt":6366},{"questionScores":[19,2419,2405,2421,24,24,13,2394,20,2403],"questionIndicies":[42,8,9,34,41,21,47,7,39,46],"judgmentIndicies":[1,0],"internal_node_id":"0.0-3.0-1.0","time_elapsed":37945,"trial_index":4,"trial_type":"survey-likert","responses":"{\"Q0\":\"5\",\"Q1\":\"4\"}","rt":7284},{"questionScores":[19,2419,2405,2421,24,24,13,2394,20,2403],"questionIndicies":[42,8,9,34,41,21,47,7,39,46],"judgmentIndicies":[1,0],"internal_node_id":"0.0-3.0-2.0","time_elapsed":43401,"trial_index":5,"trial_type":"survey-likert","responses":"{\"Q0\":\"5\",\"Q1\":\"1\"}","rt":4446},{"questionScores":[19,2419,2405,2421,24,24,13,2394,20,2403],"questionIndicies":[42,8,9,34,41,21,47,7,39,46],"judgmentIndicies":[1,0],"internal_node_id":"0.0-3.0-3.0","time_elapsed":50075,"trial_index":6,"trial_type":"survey-likert","responses":"{\"Q0\":\"4\",\"Q1\":\"1\"}","rt":5668},{"questionScores":[19,2419,2405,2421,24,24,13,2394,20,2403],"questionIndicies":[42,8,9,34,41,21,47,7,39,46],"judgmentIndicies":[1,0],"internal_node_id":"0.0-3.0-4.0","time_elapsed":56014,"trial_index":7,"trial_type":"survey-likert","responses":"{\"Q0\":\"1\",\"Q1\":\"2\"}","rt":4933},{"questionScores":[19,2419,2405,2421,24,24,13,2394,20,2403],"questionIndicies":[42,8,9,34,41,21,47,7,39,46],"judgmentIndicies":[1,0],"internal_node_id":"0.0-3.0-5.0","time_elapsed":61518,"trial_index":8,"trial_type":"survey-likert","responses":"{\"Q0\":\"1\",\"Q1\":\"0\"}","rt":4495},{"questionScores":[19,2419,2405,2421,24,24,13,2394,20,2403],"questionIndicies":[42,8,9,34,41,21,47,7,39,46],"judgmentIndicies":[1,0],"internal_node_id":"0.0-3.0-6.0","time_elapsed":65748,"trial_index":9,"trial_type":"survey-likert","responses":"{\"Q0\":\"0\",\"Q1\":\"0\"}","rt":3220},{"questionScores":[19,2419,2405,2421,24,24,13,2394,20,2403],"questionIndicies":[42,8,9,34,41,21,47,7,39,46],"judgmentIndicies":[1,0],"internal_node_id":"0.0-3.0-7.0","time_elapsed":71370,"trial_index":10,"trial_type":"survey-likert","responses":"{\"Q0\":\"5\",\"Q1\":\"5\"}","rt":4615},{"questionScores":[19,2419,2405,2421,24,24,13,2394,20,2403],"questionIndicies":[42,8,9,34,41,21,47,7,39,46],"judgmentIndicies":[1,0],"internal_node_id":"0.0-3.0-8.0","time_elapsed":75787,"trial_index":11,"trial_type":"survey-likert","responses":"{\"Q0\":\"1\",\"Q1\":\"2\"}","rt":3409},{"questionScores":[19,2419,2405,2421,24,24,13,2394,20,2403],"questionIndicies":[42,8,9,34,41,21,47,7,39,46],"judgmentIndicies":[1,0],"internal_node_id":"0.0-3.0-9.0","time_elapsed":81387,"trial_index":12,"trial_type":"survey-likert","responses":"{\"Q0\":\"5\",\"Q1\":\"1\"}","rt":4591},{"questionScores":[19,2419,2405,2421,24,24,13,2394,20,2403],"questionIndicies":[42,8,9,34,41,21,47,7,39,46],"judgmentIndicies":[1,0],"internal_node_id":"0.0-4.0","time_elapsed":89741,"trial_index":13,"trial_type":"instructions","rt":7353,"view_history":"[{\"page_index\":0,\"viewing_time\":7352}]"},{"questionScores":[19,2419,2405,2421,24,24,13,2394,20,2403],"questionIndicies":[42,8,9,34,41,21,47,7,39,46],"judgmentIndicies":[1,0],"internal_node_id":"0.0-5.0","time_elapsed":117459,"trial_index":14,"trial_type":"survey-multi-choose","responses":"{\"Q0\":\"Keep Hidden\",\"Q1\":\"Reveal Answer\",\"Q2\":\"Reveal Answer\",\"Q3\":\"Keep Hidden\",\"Q4\":\"Reveal Answer\",\"Q5\":\"Keep Hidden\",\"Q6\":\"Keep Hidden\",\"Q7\":\"Reveal Answer\",\"Q8\":\"Reveal Answer\",\"Q9\":\"Keep Hidden\"}","rt":26683},{"questionScores":[19,2419,2405,2421,24,24,13,2394,20,2403],"questionIndicies":[42,8,9,34,41,21,47,7,39,46],"judgmentIndicies":[1,0],"internal_node_id":"0.0-6.0","time_elapsed":134579,"trial_index":15,"trial_type":"instructions","rt":16099,"view_history":"[{\"page_index\":0,\"viewing_time\":16097}]"}],"__v":0}
{"_id":{"$oid":"5a6b8e6ed960b6000480c5a0"},"data":[{"questionScores":[9,2408,2410,2398,2415,24,2407,33,17,14],"questionIndicies":[22,33,20,8,26,0,40,25,13,27],"judgmentIndicies":[0,1],"internal_node_id":"0.0-0.0","time_elapsed":4153,"trial_index":0,"trial_type":"survey-multi-choice","responses":"{\"Q0\":\"I consent to participate\"}","rt":4146},{"questionScores":[9,2408,2410,2398,2415,24,2407,33,17,14],"questionIndicies":[22,33,20,8,26,0,40,25,13,27],"judgmentIndicies":[0,1],"internal_node_id":"0.0-1.0","time_elapsed":6960,"trial_index":1,"trial_type":"instructions","rt":1805,"view_history":"[{\"page_index\":0,\"viewing_time\":1805}]"},{"questionScores":[9,2408,2410,2398,2415,24,2407,33,17,14],"questionIndicies":[22,33,20,8,26,0,40,25,13,27],"judgmentIndicies":[0,1],"internal_node_id":"0.0-2.0","time_elapsed":18632,"trial_index":2,"trial_type":"instructions","rt":10671,"view_history":"[{\"page_index\":0,\"viewing_time\":10670}]"},{"questionScores":[9,2408,2410,2398,2415,24,2407,33,17,14],"questionIndicies":[22,33,20,8,26,0,40,25,13,27],"judgmentIndicies":[0,1],"internal_node_id":"0.0-3.0-0.0","time_elapsed":26328,"trial_index":3,"trial_type":"survey-likert","responses":"{\"Q0\":\"6\",\"Q1\":\"4\"}","rt":6693},{"questionScores":[9,2408,2410,2398,2415,24,2407,33,17,14],"questionIndicies":[22,33,20,8,26,0,40,25,13,27],"judgmentIndicies":[0,1],"internal_node_id":"0.0-3.0-1.0","time_elapsed":32055,"trial_index":4,"trial_type":"survey-likert","responses":"{\"Q0\":\"4\",\"Q1\":\"4\"}","rt":4722},{"questionScores":[9,2408,2410,2398,2415,24,2407,33,17,14],"questionIndicies":[22,33,20,8,26,0,40,25,13,27],"judgmentIndicies":[0,1],"internal_node_id":"0.0-3.0-2.0","time_elapsed":37880,"trial_index":5,"trial_type":"survey-likert","responses":"{\"Q0\":\"6\",\"Q1\":\"2\"}","rt":4819},{"questionScores":[9,2408,2410,2398,2415,24,2407,33,17,14],"questionIndicies":[22,33,20,8,26,0,40,25,13,27],"judgmentIndicies":[0,1],"internal_node_id":"0.0-3.0-3.0","time_elapsed":44296,"trial_index":6,"trial_type":"survey-likert","responses":"{\"Q0\":\"3\",\"Q1\":\"3\"}","rt":5413},{"questionScores":[9,2408,2410,2398,2415,24,2407,33,17,14],"questionIndicies":[22,33,20,8,26,0,40,25,13,27],"judgmentIndicies":[0,1],"internal_node_id":"0.0-3.0-4.0","time_elapsed":49208,"trial_index":7,"trial_type":"survey-likert","responses":"{\"Q0\":\"5\",\"Q1\":\"2\"}","rt":3907},{"questionScores":[9,2408,2410,2398,2415,24,2407,33,17,14],"questionIndicies":[22,33,20,8,26,0,40,25,13,27],"judgmentIndicies":[0,1],"internal_node_id":"0.0-3.0-5.0","time_elapsed":53239,"trial_index":8,"trial_type":"survey-likert","responses":"{\"Q0\":\"6\",\"Q1\":\"5\"}","rt":3028},{"questionScores":[9,2408,2410,2398,2415,24,2407,33,17,14],"questionIndicies":[22,33,20,8,26,0,40,25,13,27],"judgmentIndicies":[0,1],"internal_node_id":"0.0-3.0-6.0","time_elapsed":59791,"trial_index":9,"trial_type":"survey-likert","responses":"{\"Q0\":\"1\",\"Q1\":\"2\"}","rt":5549},{"questionScores":[9,2408,2410,2398,2415,24,2407,33,17,14],"questionIndicies":[22,33,20,8,26,0,40,25,13,27],"judgmentIndicies":[0,1],"internal_node_id":"0.0-3.0-7.0","time_elapsed":63943,"trial_index":10,"trial_type":"survey-likert","responses":"{\"Q0\":\"1\",\"Q1\":\"4\"}","rt":3147},{"questionScores":[9,2408,2410,2398,2415,24,2407,33,17,14],"questionIndicies":[22,33,20,8,26,0,40,25,13,27],"judgmentIndicies":[0,1],"internal_node_id":"0.0-3.0-8.0","time_elapsed":69023,"trial_index":11,"trial_type":"survey-likert","responses":"{\"Q0\":\"5\",\"Q1\":\"5\"}","rt":4075},{"questionScores":[9,2408,2410,2398,2415,24,2407,33,17,14],"questionIndicies":[22,33,20,8,26,0,40,25,13,27],"judgmentIndicies":[0,1],"internal_node_id":"0.0-3.0-9.0","time_elapsed":72551,"trial_index":12,"trial_type":"survey-likert","responses":"{\"Q0\":\"6\",\"Q1\":\"3\"}","rt":2524},{"questionScores":[9,2408,2410,2398,2415,24,2407,33,17,14],"questionIndicies":[22,33,20,8,26,0,40,25,13,27],"judgmentIndicies":[0,1],"internal_node_id":"0.0-4.0","time_elapsed":78255,"trial_index":13,"trial_type":"instructions","rt":4703,"view_history":"[{\"page_index\":0,\"viewing_time\":4703}]"},{"questionScores":[9,2408,2410,2398,2415,24,2407,33,17,14],"questionIndicies":[22,33,20,8,26,0,40,25,13,27],"judgmentIndicies":[0,1],"internal_node_id":"0.0-5.0","time_elapsed":105681,"trial_index":14,"trial_type":"survey-multi-choose","responses":"{\"Q0\":\"Reveal Answer\",\"Q1\":\"Keep Hidden\",\"Q2\":\"Keep Hidden\",\"Q3\":\"Reveal Answer\",\"Q4\":\"Keep Hidden\",\"Q5\":\"Reveal Answer\",\"Q6\":\"Keep Hidden\",\"Q7\":\"Reveal Answer\",\"Q8\":\"Reveal Answer\",\"Q9\":\"Keep Hidden\"}","rt":26414},{"questionScores":[9,2408,2410,2398,2415,24,2407,33,17,14],"questionIndicies":[22,33,20,8,26,0,40,25,13,27],"judgmentIndicies":[0,1],"internal_node_id":"0.0-6.0","time_elapsed":110630,"trial_index":15,"trial_type":"instructions","rt":3940,"view_history":"[{\"page_index\":0,\"viewing_time\":3940}]"}],"__v":0}
{"_id":{"$oid":"5a6b8e6fd960b6000480c5a1"},"data":[{"questionScores":[2405,27,29,2399,2391,2410,53,28,2402,39],"questionIndicies":[20,6,18,11,38,15,40,42,47,32],"judgmentIndicies":[0,1],"internal_node_id":"0.0-0.0","time_elapsed":4943,"trial_index":0,"trial_type":"survey-multi-choice","responses":"{\"Q0\":\"I consent to participate\"}","rt":4933},{"questionScores":[2405,27,29,2399,2391,2410,53,28,2402,39],"questionIndicies":[20,6,18,11,38,15,40,42,47,32],"judgmentIndicies":[0,1],"internal_node_id":"0.0-1.0","time_elapsed":7214,"trial_index":1,"trial_type":"instructions","rt":1270,"view_history":"[{\"page_index\":0,\"viewing_time\":1269}]"},{"questionScores":[2405,27,29,2399,2391,2410,53,28,2402,39],"questionIndicies":[20,6,18,11,38,15,40,42,47,32],"judgmentIndicies":[0,1],"internal_node_id":"0.0-2.0","time_elapsed":14485,"trial_index":2,"trial_type":"instructions","rt":6271,"view_history":"[{\"page_index\":0,\"viewing_time\":6271}]"},{"questionScores":[2405,27,29,2399,2391,2410,53,28,2402,39],"questionIndicies":[20,6,18,11,38,15,40,42,47,32],"judgmentIndicies":[0,1],"internal_node_id":"0.0-3.0-0.0","time_elapsed":24719,"trial_index":3,"trial_type":"survey-likert","responses":"{\"Q0\":\"5\",\"Q1\":\"5\"}","rt":9229},{"questionScores":[2405,27,29,2399,2391,2410,53,28,2402,39],"questionIndicies":[20,6,18,11,38,15,40,42,47,32],"judgmentIndicies":[0,1],"internal_node_id":"0.0-3.0-1.0","time_elapsed":31325,"trial_index":4,"trial_type":"survey-likert","responses":"{\"Q0\":\"2\",\"Q1\":\"3\"}","rt":5603},{"questionScores":[2405,27,29,2399,2391,2410,53,28,2402,39],"questionIndicies":[20,6,18,11,38,15,40,42,47,32],"judgmentIndicies":[0,1],"internal_node_id":"0.0-3.0-2.0","time_elapsed":38189,"trial_index":5,"trial_type":"survey-likert","responses":"{\"Q0\":\"2\",\"Q1\":\"2\"}","rt":5860},{"questionScores":[2405,27,29,2399,2391,2410,53,28,2402,39],"questionIndicies":[20,6,18,11,38,15,40,42,47,32],"judgmentIndicies":[0,1],"internal_node_id":"0.0-3.0-3.0","time_elapsed":44845,"trial_index":6,"trial_type":"survey-likert","responses":"{\"Q0\":\"5\",\"Q1\":\"5\"}","rt":5653},{"questionScores":[2405,27,29,2399,2391,2410,53,28,2402,39],"questionIndicies":[20,6,18,11,38,15,40,42,47,32],"judgmentIndicies":[0,1],"internal_node_id":"0.0-3.0-4.0","time_elapsed":49421,"trial_index":7,"trial_type":"survey-likert","responses":"{\"Q0\":\"5\",\"Q1\":\"5\"}","rt":3572},{"questionScores":[2405,27,29,2399,2391,2410,53,28,2402,39],"questionIndicies":[20,6,18,11,38,15,40,42,47,32],"judgmentIndicies":[0,1],"internal_node_id":"0.0-3.0-5.0","time_elapsed":55428,"trial_index":8,"trial_type":"survey-likert","responses":"{\"Q0\":\"5\",\"Q1\":\"5\"}","rt":5005},{"questionScores":[2405,27,29,2399,2391,2410,53,28,2402,39],"questionIndicies":[20,6,18,11,38,15,40,42,47,32],"judgmentIndicies":[0,1],"internal_node_id":"0.0-3.0-6.0","time_elapsed":59749,"trial_index":9,"trial_type":"survey-likert","responses":"{\"Q0\":\"3\",\"Q1\":\"3\"}","rt":3319},{"questionScores":[2405,27,29,2399,2391,2410,53,28,2402,39],"questionIndicies":[20,6,18,11,38,15,40,42,47,32],"judgmentIndicies":[0,1],"internal_node_id":"0.0-3.0-7.0","time_elapsed":63709,"trial_index":10,"trial_type":"survey-likert","responses":"{\"Q0\":\"2\",\"Q1\":\"2\"}","rt":2956},{"questionScores":[2405,27,29,2399,2391,2410,53,28,2402,39],"questionIndicies":[20,6,18,11,38,15,40,42,47,32],"judgmentIndicies":[0,1],"internal_node_id":"0.0-3.0-8.0","time_elapsed":67685,"trial_index":11,"trial_type":"survey-likert","responses":"{\"Q0\":\"5\",\"Q1\":\"5\"}","rt":2974},{"questionScores":[2405,27,29,2399,2391,2410,53,28,2402,39],"questionIndicies":[20,6,18,11,38,15,40,42,47,32],"judgmentIndicies":[0,1],"internal_node_id":"0.0-3.0-9.0","time_elapsed":71622,"trial_index":12,"trial_type":"survey-likert","responses":"{\"Q0\":\"2\",\"Q1\":\"2\"}","rt":2933},{"questionScores":[2405,27,29,2399,2391,2410,53,28,2402,39],"questionIndicies":[20,6,18,11,38,15,40,42,47,32],"judgmentIndicies":[0,1],"internal_node_id":"0.0-4.0","time_elapsed":79902,"trial_index":13,"trial_type":"instructions","rt":7280,"view_history":"[{\"page_index\":0,\"viewing_time\":7279}]"},{"questionScores":[2405,27,29,2399,2391,2410,53,28,2402,39],"questionIndicies":[20,6,18,11,38,15,40,42,47,32],"judgmentIndicies":[0,1],"internal_node_id":"0.0-5.0","time_elapsed":107190,"trial_index":14,"trial_type":"survey-multi-choose","responses":"{\"Q0\":\"Reveal Answer\",\"Q1\":\"Keep Hidden\",\"Q2\":\"Keep Hidden\",\"Q3\":\"Keep Hidden\",\"Q4\":\"Reveal Answer\",\"Q5\":\"Reveal Answer\",\"Q6\":\"Reveal Answer\",\"Q7\":\"Keep Hidden\",\"Q8\":\"Keep Hidden\",\"Q9\":\"Reveal Answer\"}","rt":26279},{"questionScores":[2405,27,29,2399,2391,2410,53,28,2402,39],"questionIndicies":[20,6,18,11,38,15,40,42,47,32],"judgmentIndicies":[0,1],"internal_node_id":"0.0-6.0","time_elapsed":135813,"trial_index":15,"trial_type":"instructions","rt":26671,"view_history":"[{\"page_index\":0,\"viewing_time\":26670}]"}],"__v":0}
{"_id":{"$oid":"5a6b8e79d960b6000480c5a2"},"data":[{"questionScores":[2400,22,2405,23,23,21,2400,2395,31,2414],"questionIndicies":[9,4,42,2,1,18,21,14,39,35],"judgmentIndicies":[1,0],"internal_node_id":"0.0-0.0","time_elapsed":5503,"trial_index":0,"trial_type":"survey-multi-choice","responses":"{\"Q0\":\"I consent to participate\"}","rt":5488},{"questionScores":[2400,22,2405,23,23,21,2400,2395,31,2414],"questionIndicies":[9,4,42,2,1,18,21,14,39,35],"judgmentIndicies":[1,0],"internal_node_id":"0.0-1.0","time_elapsed":7608,"trial_index":1,"trial_type":"instructions","rt":1103,"view_history":"[{\"page_index\":0,\"viewing_time\":1102}]"},{"questionScores":[2400,22,2405,23,23,21,2400,2395,31,2414],"questionIndicies":[9,4,42,2,1,18,21,14,39,35],"judgmentIndicies":[1,0],"internal_node_id":"0.0-2.0","time_elapsed":15001,"trial_index":2,"trial_type":"instructions","rt":6392,"view_history":"[{\"page_index\":0,\"viewing_time\":6391}]"},{"questionScores":[2400,22,2405,23,23,21,2400,2395,31,2414],"questionIndicies":[9,4,42,2,1,18,21,14,39,35],"judgmentIndicies":[1,0],"internal_node_id":"0.0-3.0-0.0","time_elapsed":23601,"trial_index":3,"trial_type":"survey-likert","responses":"{\"Q0\":\"3\",\"Q1\":\"0\"}","rt":7595},{"questionScores":[2400,22,2405,23,23,21,2400,2395,31,2414],"questionIndicies":[9,4,42,2,1,18,21,14,39,35],"judgmentIndicies":[1,0],"internal_node_id":"0.0-3.0-1.0","time_elapsed":29706,"trial_index":4,"trial_type":"survey-likert","responses":"{\"Q0\":\"1\",\"Q1\":\"4\"}","rt":5102},{"questionScores":[2400,22,2405,23,23,21,2400,2395,31,2414],"questionIndicies":[9,4,42,2,1,18,21,14,39,35],"judgmentIndicies":[1,0],"internal_node_id":"0.0-3.0-2.0","time_elapsed":35572,"trial_index":5,"trial_type":"survey-likert","responses":"{\"Q0\":\"5\",\"Q1\":\"2\"}","rt":4862},{"questionScores":[2400,22,2405,23,23,21,2400,2395,31,2414],"questionIndicies":[9,4,42,2,1,18,21,14,39,35],"judgmentIndicies":[1,0],"internal_node_id":"0.0-3.0-3.0","time_elapsed":40865,"trial_index":6,"trial_type":"survey-likert","responses":"{\"Q0\":\"0\",\"Q1\":\"0\"}","rt":4289},{"questionScores":[2400,22,2405,23,23,21,2400,2395,31,2414],"questionIndicies":[9,4,42,2,1,18,21,14,39,35],"judgmentIndicies":[1,0],"internal_node_id":"0.0-3.0-4.0","time_elapsed":47760,"trial_index":7,"trial_type":"survey-likert","responses":"{\"Q0\":\"1\",\"Q1\":\"1\"}","rt":5889},{"questionScores":[2400,22,2405,23,23,21,2400,2395,31,2414],"questionIndicies":[9,4,42,2,1,18,21,14,39,35],"judgmentIndicies":[1,0],"internal_node_id":"0.0-3.0-5.0","time_elapsed":52242,"trial_index":8,"trial_type":"survey-likert","responses":"{\"Q0\":\"0\",\"Q1\":\"0\"}","rt":3478},{"questionScores":[2400,22,2405,23,23,21,2400,2395,31,2414],"questionIndicies":[9,4,42,2,1,18,21,14,39,35],"judgmentIndicies":[1,0],"internal_node_id":"0.0-3.0-6.0","time_elapsed":56890,"trial_index":9,"trial_type":"survey-likert","responses":"{\"Q0\":\"2\",\"Q1\":\"3\"}","rt":3642},{"questionScores":[2400,22,2405,23,23,21,2400,2395,31,2414],"questionIndicies":[9,4,42,2,1,18,21,14,39,35],"judgmentIndicies":[1,0],"internal_node_id":"0.0-3.0-7.0","time_elapsed":61458,"trial_index":10,"trial_type":"survey-likert","responses":"{\"Q0\":\"4\",\"Q1\":\"1\"}","rt":3564},{"questionScores":[2400,22,2405,23,23,21,2400,2395,31,2414],"questionIndicies":[9,4,42,2,1,18,21,14,39,35],"judgmentIndicies":[1,0],"internal_node_id":"0.0-3.0-8.0","time_elapsed":66192,"trial_index":11,"trial_type":"survey-likert","responses":"{\"Q0\":\"1\",\"Q1\":\"2\"}","rt":3725},{"questionScores":[2400,22,2405,23,23,21,2400,2395,31,2414],"questionIndicies":[9,4,42,2,1,18,21,14,39,35],"judgmentIndicies":[1,0],"internal_node_id":"0.0-3.0-9.0","time_elapsed":70598,"trial_index":12,"trial_type":"survey-likert","responses":"{\"Q0\":\"5\",\"Q1\":\"1\"}","rt":3403},{"questionScores":[2400,22,2405,23,23,21,2400,2395,31,2414],"questionIndicies":[9,4,42,2,1,18,21,14,39,35],"judgmentIndicies":[1,0],"internal_node_id":"0.0-4.0","time_elapsed":77122,"trial_index":13,"trial_type":"instructions","rt":5524,"view_history":"[{\"page_index\":0,\"viewing_time\":5524}]"},{"questionScores":[2400,22,2405,23,23,21,2400,2395,31,2414],"questionIndicies":[9,4,42,2,1,18,21,14,39,35],"judgmentIndicies":[1,0],"internal_node_id":"0.0-5.0","time_elapsed":105315,"trial_index":14,"trial_type":"survey-multi-choose","responses":"{\"Q0\":\"Reveal Answer\",\"Q1\":\"Keep Hidden\",\"Q2\":\"Keep Hidden\",\"Q3\":\"Keep Hidden\",\"Q4\":\"Reveal Answer\",\"Q5\":\"Reveal Answer\",\"Q6\":\"Reveal Answer\",\"Q7\":\"Reveal Answer\",\"Q8\":\"Keep Hidden\",\"Q9\":\"Keep Hidden\"}","rt":27174},{"questionScores":[2400,22,2405,23,23,21,2400,2395,31,2414],"questionIndicies":[9,4,42,2,1,18,21,14,39,35],"judgmentIndicies":[1,0],"internal_node_id":"0.0-6.0","time_elapsed":155797,"trial_index":15,"trial_type":"instructions","rt":49468,"view_history":"[{\"page_index\":0,\"viewing_time\":49467}]"}],"__v":0}
{"_id":{"$oid":"5a6b8e7dd960b6000480c5a3"},"data":[{"questionScores":[2401,2422,3,18,2383,2416,2389,38,19,34],"questionIndicies":[3,16,10,8,28,9,39,37,22,6],"judgmentIndicies":[1,0],"internal_node_id":"0.0-0.0","time_elapsed":7652,"trial_index":0,"trial_type":"survey-multi-choice","responses":"{\"Q0\":\"I consent to participate\"}","rt":7646},{"questionScores":[2401,2422,3,18,2383,2416,2389,38,19,34],"questionIndicies":[3,16,10,8,28,9,39,37,22,6],"judgmentIndicies":[1,0],"internal_node_id":"0.0-1.0","time_elapsed":10976,"trial_index":1,"trial_type":"instructions","rt":2323,"view_history":"[{\"page_index\":0,\"viewing_time\":2323}]"},{"questionScores":[2401,2422,3,18,2383,2416,2389,38,19,34],"questionIndicies":[3,16,10,8,28,9,39,37,22,6],"judgmentIndicies":[1,0],"internal_node_id":"0.0-2.0","time_elapsed":37047,"trial_index":2,"trial_type":"instructions","rt":25070,"view_history":"[{\"page_index\":0,\"viewing_time\":25070}]"},{"questionScores":[2401,2422,3,18,2383,2416,2389,38,19,34],"questionIndicies":[3,16,10,8,28,9,39,37,22,6],"judgmentIndicies":[1,0],"internal_node_id":"0.0-3.0-0.0","time_elapsed":51903,"trial_index":3,"trial_type":"survey-likert","responses":"{\"Q0\":\"6\",\"Q1\":\"4\"}","rt":13853},{"questionScores":[2401,2422,3,18,2383,2416,2389,38,19,34],"questionIndicies":[3,16,10,8,28,9,39,37,22,6],"judgmentIndicies":[1,0],"internal_node_id":"0.0-3.0-1.0","time_elapsed":63066,"trial_index":4,"trial_type":"survey-likert","responses":"{\"Q0\":\"6\",\"Q1\":\"6\"}","rt":10161},{"questionScores":[2401,2422,3,18,2383,2416,2389,38,19,34],"questionIndicies":[3,16,10,8,28,9,39,37,22,6],"judgmentIndicies":[1,0],"internal_node_id":"0.0-3.0-2.0","time_elapsed":68348,"trial_index":5,"trial_type":"survey-likert","responses":"{\"Q0\":\"0\",\"Q1\":\"3\"}","rt":4280},{"questionScores":[2401,2422,3,18,2383,2416,2389,38,19,34],"questionIndicies":[3,16,10,8,28,9,39,37,22,6],"judgmentIndicies":[1,0],"internal_node_id":"0.0-3.0-3.0","time_elapsed":72448,"trial_index":6,"trial_type":"survey-likert","responses":"{\"Q0\":\"1\",\"Q1\":\"3\"}","rt":3099},{"questionScores":[2401,2422,3,18,2383,2416,2389,38,19,34],"questionIndicies":[3,16,10,8,28,9,39,37,22,6],"judgmentIndicies":[1,0],"internal_node_id":"0.0-3.0-4.0","time_elapsed":77392,"trial_index":7,"trial_type":"survey-likert","responses":"{\"Q0\":\"6\",\"Q1\":\"5\"}","rt":3941},{"questionScores":[2401,2422,3,18,2383,2416,2389,38,19,34],"questionIndicies":[3,16,10,8,28,9,39,37,22,6],"judgmentIndicies":[1,0],"internal_node_id":"0.0-3.0-5.0","time_elapsed":88342,"trial_index":8,"trial_type":"survey-likert","responses":"{\"Q0\":\"5\",\"Q1\":\"1\"}","rt":9949},{"questionScores":[2401,2422,3,18,2383,2416,2389,38,19,34],"questionIndicies":[3,16,10,8,28,9,39,37,22,6],"judgmentIndicies":[1,0],"internal_node_id":"0.0-3.0-6.0","time_elapsed":93002,"trial_index":9,"trial_type":"survey-likert","responses":"{\"Q0\":\"6\",\"Q1\":\"6\"}","rt":3657},{"questionScores":[2401,2422,3,18,2383,2416,2389,38,19,34],"questionIndicies":[3,16,10,8,28,9,39,37,22,6],"judgmentIndicies":[1,0],"internal_node_id":"0.0-3.0-7.0","time_elapsed":99043,"trial_index":10,"trial_type":"survey-likert","responses":"{\"Q0\":\"2\",\"Q1\":\"4\"}","rt":5039},{"questionScores":[2401,2422,3,18,2383,2416,2389,38,19,34],"questionIndicies":[3,16,10,8,28,9,39,37,22,6],"judgmentIndicies":[1,0],"internal_node_id":"0.0-3.0-8.0","time_elapsed":105341,"trial_index":11,"trial_type":"survey-likert","responses":"{\"Q0\":\"1\",\"Q1\":\"4\"}","rt":5296},{"questionScores":[2401,2422,3,18,2383,2416,2389,38,19,34],"questionIndicies":[3,16,10,8,28,9,39,37,22,6],"judgmentIndicies":[1,0],"internal_node_id":"0.0-3.0-9.0","time_elapsed":110782,"trial_index":12,"trial_type":"survey-likert","responses":"{\"Q0\":\"2\",\"Q1\":\"1\"}","rt":4439},{"questionScores":[2401,2422,3,18,2383,2416,2389,38,19,34],"questionIndicies":[3,16,10,8,28,9,39,37,22,6],"judgmentIndicies":[1,0],"internal_node_id":"0.0-4.0","time_elapsed":113384,"trial_index":13,"trial_type":"instructions","rt":1601,"view_history":"[{\"page_index\":0,\"viewing_time\":1601}]"},{"questionScores":[2401,2422,3,18,2383,2416,2389,38,19,34],"questionIndicies":[3,16,10,8,28,9,39,37,22,6],"judgmentIndicies":[1,0],"internal_node_id":"0.0-5.0","time_elapsed":139995,"trial_index":14,"trial_type":"survey-multi-choose","responses":"{\"Q0\":\"Reveal Answer\",\"Q1\":\"Reveal Answer\",\"Q2\":\"Keep Hidden\",\"Q3\":\"Keep Hidden\",\"Q4\":\"Keep Hidden\",\"Q5\":\"Keep Hidden\",\"Q6\":\"Reveal Answer\",\"Q7\":\"Reveal Answer\",\"Q8\":\"Reveal Answer\",\"Q9\":\"Keep Hidden\"}","rt":25601},{"questionScores":[2401,2422,3,18,2383,2416,2389,38,19,34],"questionIndicies":[3,16,10,8,28,9,39,37,22,6],"judgmentIndicies":[1,0],"internal_node_id":"0.0-6.0","time_elapsed":150337,"trial_index":15,"trial_type":"instructions","rt":9340,"view_history":"[{\"page_index\":0,\"viewing_time\":9340}]"}],"__v":0}
{"_id":{"$oid":"5a6b8e83d960b6000480c5a4"},"data":[{"questionScores":[2403,2417,2420,2419,2412,25,37,37,31,4],"questionIndicies":[28,5,3,13,4,7,22,23,38,18],"judgmentIndicies":[0,1],"internal_node_id":"0.0-0.0","time_elapsed":2786,"trial_index":0,"trial_type":"survey-multi-choice","responses":"{\"Q0\":\"I consent to participate\"}","rt":2766},{"questionScores":[2403,2417,2420,2419,2412,25,37,37,31,4],"questionIndicies":[28,5,3,13,4,7,22,23,38,18],"judgmentIndicies":[0,1],"internal_node_id":"0.0-1.0","time_elapsed":5103,"trial_index":1,"trial_type":"instructions","rt":1316,"view_history":"[{\"page_index\":0,\"viewing_time\":1315}]"},{"questionScores":[2403,2417,2420,2419,2412,25,37,37,31,4],"questionIndicies":[28,5,3,13,4,7,22,23,38,18],"judgmentIndicies":[0,1],"internal_node_id":"0.0-2.0","time_elapsed":12498,"trial_index":2,"trial_type":"instructions","rt":6394,"view_history":"[{\"page_index\":0,\"viewing_time\":6393}]"},{"questionScores":[2403,2417,2420,2419,2412,25,37,37,31,4],"questionIndicies":[28,5,3,13,4,7,22,23,38,18],"judgmentIndicies":[0,1],"internal_node_id":"0.0-3.0-0.0","time_elapsed":21342,"trial_index":3,"trial_type":"survey-likert","responses":"{\"Q0\":\"4\",\"Q1\":\"3\"}","rt":7832},{"questionScores":[2403,2417,2420,2419,2412,25,37,37,31,4],"questionIndicies":[28,5,3,13,4,7,22,23,38,18],"judgmentIndicies":[0,1],"internal_node_id":"0.0-3.0-1.0","time_elapsed":25728,"trial_index":4,"trial_type":"survey-likert","responses":"{\"Q0\":\"1\",\"Q1\":\"1\"}","rt":3382},{"questionScores":[2403,2417,2420,2419,2412,25,37,37,31,4],"questionIndicies":[28,5,3,13,4,7,22,23,38,18],"judgmentIndicies":[0,1],"internal_node_id":"0.0-3.0-2.0","time_elapsed":30551,"trial_index":5,"trial_type":"survey-likert","responses":"{\"Q0\":\"1\",\"Q1\":\"1\"}","rt":3818},{"questionScores":[2403,2417,2420,2419,2412,25,37,37,31,4],"questionIndicies":[28,5,3,13,4,7,22,23,38,18],"judgmentIndicies":[0,1],"internal_node_id":"0.0-3.0-3.0","time_elapsed":37551,"trial_index":6,"trial_type":"survey-likert","responses":"{\"Q0\":\"3\",\"Q1\":\"2\"}","rt":5995},{"questionScores":[2403,2417,2420,2419,2412,25,37,37,31,4],"questionIndicies":[28,5,3,13,4,7,22,23,38,18],"judgmentIndicies":[0,1],"internal_node_id":"0.0-3.0-4.0","time_elapsed":41839,"trial_index":7,"trial_type":"survey-likert","responses":"{\"Q0\":\"2\",\"Q1\":\"3\"}","rt":3284},{"questionScores":[2403,2417,2420,2419,2412,25,37,37,31,4],"questionIndicies":[28,5,3,13,4,7,22,23,38,18],"judgmentIndicies":[0,1],"internal_node_id":"0.0-3.0-5.0","time_elapsed":46454,"trial_index":8,"trial_type":"survey-likert","responses":"{\"Q0\":\"0\",\"Q1\":\"0\"}","rt":3611},{"questionScores":[2403,2417,2420,2419,2412,25,37,37,31,4],"questionIndicies":[28,5,3,13,4,7,22,23,38,18],"judgmentIndicies":[0,1],"internal_node_id":"0.0-3.0-6.0","time_elapsed":50120,"trial_index":9,"trial_type":"survey-likert","responses":"{\"Q0\":\"0\",\"Q1\":\"0\"}","rt":2663},{"questionScores":[2403,2417,2420,2419,2412,25,37,37,31,4],"questionIndicies":[28,5,3,13,4,7,22,23,38,18],"judgmentIndicies":[0,1],"internal_node_id":"0.0-3.0-7.0","time_elapsed":55068,"trial_index":10,"trial_type":"survey-likert","responses":"{\"Q0\":\"1\",\"Q1\":\"0\"}","rt":3942},{"questionScores":[2403,2417,2420,2419,2412,25,37,37,31,4],"questionIndicies":[28,5,3,13,4,7,22,23,38,18],"judgmentIndicies":[0,1],"internal_node_id":"0.0-3.0-8.0","time_elapsed":86342,"trial_index":11,"trial_type":"survey-likert","responses":"{\"Q0\":\"0\",\"Q1\":\"0\"}","rt":30270},{"questionScores":[2403,2417,2420,2419,2412,25,37,37,31,4],"questionIndicies":[28,5,3,13,4,7,22,23,38,18],"judgmentIndicies":[0,1],"internal_node_id":"0.0-3.0-9.0","time_elapsed":90450,"trial_index":12,"trial_type":"survey-likert","responses":"{\"Q0\":\"0\",\"Q1\":\"0\"}","rt":3103},{"questionScores":[2403,2417,2420,2419,2412,25,37,37,31,4],"questionIndicies":[28,5,3,13,4,7,22,23,38,18],"judgmentIndicies":[0,1],"internal_node_id":"0.0-4.0","time_elapsed":93767,"trial_index":13,"trial_type":"instructions","rt":2317,"view_history":"[{\"page_index\":0,\"viewing_time\":2317}]"},{"questionScores":[2403,2417,2420,2419,2412,25,37,37,31,4],"questionIndicies":[28,5,3,13,4,7,22,23,38,18],"judgmentIndicies":[0,1],"internal_node_id":"0.0-5.0","time_elapsed":141356,"trial_index":14,"trial_type":"survey-multi-choose","responses":"{\"Q0\":\"Reveal Answer\",\"Q1\":\"Keep Hidden\",\"Q2\":\"Keep Hidden\",\"Q3\":\"Reveal Answer\",\"Q4\":\"Reveal Answer\",\"Q5\":\"Keep Hidden\",\"Q6\":\"Reveal Answer\",\"Q7\":\"Reveal Answer\",\"Q8\":\"Keep Hidden\",\"Q9\":\"Keep Hidden\"}","rt":46570},{"questionScores":[2403,2417,2420,2419,2412,25,37,37,31,4],"questionIndicies":[28,5,3,13,4,7,22,23,38,18],"judgmentIndicies":[0,1],"internal_node_id":"0.0-6.0","time_elapsed":150925,"trial_index":15,"trial_type":"instructions","rt":8549,"view_history":"[{\"page_index\":0,\"viewing_time\":8548}]"}],"__v":0}
{"_id":{"$oid":"5a6b8e8bd960b6000480c5a5"},"data":[{"questionScores":[2396,2425,33,2403,26,23,2423,15,16,2415],"questionIndicies":[5,39,22,25,31,7,12,48,4,33],"judgmentIndicies":[1,0],"internal_node_id":"0.0-0.0","time_elapsed":6920,"trial_index":0,"trial_type":"survey-multi-choice","responses":"{\"Q0\":\"I consent to participate\"}","rt":6911},{"questionScores":[2396,2425,33,2403,26,23,2423,15,16,2415],"questionIndicies":[5,39,22,25,31,7,12,48,4,33],"judgmentIndicies":[1,0],"internal_node_id":"0.0-1.0","time_elapsed":9104,"trial_index":1,"trial_type":"instructions","rt":1183,"view_history":"[{\"page_index\":0,\"viewing_time\":1183}]"},{"questionScores":[2396,2425,33,2403,26,23,2423,15,16,2415],"questionIndicies":[5,39,22,25,31,7,12,48,4,33],"judgmentIndicies":[1,0],"internal_node_id":"0.0-2.0","time_elapsed":12013,"trial_index":2,"trial_type":"instructions","rt":1907,"view_history":"[{\"page_index\":0,\"viewing_time\":1907}]"},{"questionScores":[2396,2425,33,2403,26,23,2423,15,16,2415],"questionIndicies":[5,39,22,25,31,7,12,48,4,33],"judgmentIndicies":[1,0],"internal_node_id":"0.0-3.0-0.0","time_elapsed":28088,"trial_index":3,"trial_type":"survey-likert","responses":"{\"Q0\":\"6\",\"Q1\":\"6\"}","rt":15072},{"questionScores":[2396,2425,33,2403,26,23,2423,15,16,2415],"questionIndicies":[5,39,22,25,31,7,12,48,4,33],"judgmentIndicies":[1,0],"internal_node_id":"0.0-3.0-1.0","time_elapsed":59652,"trial_index":4,"trial_type":"survey-likert","responses":"{\"Q0\":\"6\",\"Q1\":\"6\"}","rt":30562},{"questionScores":[2396,2425,33,2403,26,23,2423,15,16,2415],"questionIndicies":[5,39,22,25,31,7,12,48,4,33],"judgmentIndicies":[1,0],"internal_node_id":"0.0-3.0-2.0","time_elapsed":66977,"trial_index":5,"trial_type":"survey-likert","responses":"{\"Q0\":\"6\",\"Q1\":\"6\"}","rt":6322},{"questionScores":[2396,2425,33,2403,26,23,2423,15,16,2415],"questionIndicies":[5,39,22,25,31,7,12,48,4,33],"judgmentIndicies":[1,0],"internal_node_id":"0.0-3.0-3.0","time_elapsed":82393,"trial_index":6,"trial_type":"survey-likert","responses":"{\"Q0\":\"6\",\"Q1\":\"6\"}","rt":14414},{"questionScores":[2396,2425,33,2403,26,23,2423,15,16,2415],"questionIndicies":[5,39,22,25,31,7,12,48,4,33],"judgmentIndicies":[1,0],"internal_node_id":"0.0-3.0-4.0","time_elapsed":90222,"trial_index":7,"trial_type":"survey-likert","responses":"{\"Q0\":\"6\",\"Q1\":\"6\"}","rt":6827},{"questionScores":[2396,2425,33,2403,26,23,2423,15,16,2415],"questionIndicies":[5,39,22,25,31,7,12,48,4,33],"judgmentIndicies":[1,0],"internal_node_id":"0.0-3.0-5.0","time_elapsed":103918,"trial_index":8,"trial_type":"survey-likert","responses":"{\"Q0\":\"6\",\"Q1\":\"6\"}","rt":12693},{"questionScores":[2396,2425,33,2403,26,23,2423,15,16,2415],"questionIndicies":[5,39,22,25,31,7,12,48,4,33],"judgmentIndicies":[1,0],"internal_node_id":"0.0-3.0-6.0","time_elapsed":110511,"trial_index":9,"trial_type":"survey-likert","responses":"{\"Q0\":\"6\",\"Q1\":\"6\"}","rt":5591},{"questionScores":[2396,2425,33,2403,26,23,2423,15,16,2415],"questionIndicies":[5,39,22,25,31,7,12,48,4,33],"judgmentIndicies":[1,0],"internal_node_id":"0.0-3.0-7.0","time_elapsed":116169,"trial_index":10,"trial_type":"survey-likert","responses":"{\"Q0\":\"6\",\"Q1\":\"6\"}","rt":4655},{"questionScores":[2396,2425,33,2403,26,23,2423,15,16,2415],"questionIndicies":[5,39,22,25,31,7,12,48,4,33],"judgmentIndicies":[1,0],"internal_node_id":"0.0-3.0-8.0","time_elapsed":120981,"trial_index":11,"trial_type":"survey-likert","responses":"{\"Q0\":\"0\",\"Q1\":\"0\"}","rt":3810},{"questionScores":[2396,2425,33,2403,26,23,2423,15,16,2415],"questionIndicies":[5,39,22,25,31,7,12,48,4,33],"judgmentIndicies":[1,0],"internal_node_id":"0.0-3.0-9.0","time_elapsed":127298,"trial_index":12,"trial_type":"survey-likert","responses":"{\"Q0\":\"6\",\"Q1\":\"6\"}","rt":5315},{"questionScores":[2396,2425,33,2403,26,23,2423,15,16,2415],"questionIndicies":[5,39,22,25,31,7,12,48,4,33],"judgmentIndicies":[1,0],"internal_node_id":"0.0-4.0","time_elapsed":144989,"trial_index":13,"trial_type":"instructions","rt":16691,"view_history":"[{\"page_index\":0,\"viewing_time\":16691}]"},{"questionScores":[2396,2425,33,2403,26,23,2423,15,16,2415],"questionIndicies":[5,39,22,25,31,7,12,48,4,33],"judgmentIndicies":[1,0],"internal_node_id":"0.0-5.0","time_elapsed":164114,"trial_index":14,"trial_type":"survey-multi-choose","responses":"{\"Q0\":\"Reveal Answer\",\"Q1\":\"Reveal Answer\",\"Q2\":\"Keep Hidden\",\"Q3\":\"Reveal Answer\",\"Q4\":\"Keep Hidden\",\"Q5\":\"Keep Hidden\",\"Q6\":\"Reveal Answer\",\"Q7\":\"Keep Hidden\",\"Q8\":\"Keep Hidden\",\"Q9\":\"Reveal Answer\"}","rt":18114},{"questionScores":[2396,2425,33,2403,26,23,2423,15,16,2415],"questionIndicies":[5,39,22,25,31,7,12,48,4,33],"judgmentIndicies":[1,0],"internal_node_id":"0.0-6.0","time_elapsed":175468,"trial_index":15,"trial_type":"instructions","rt":10349,"view_history":"[{\"page_index\":0,\"viewing_time\":10349}]"}],"__v":0}
{"_id":{"$oid":"5a6b8e91d960b6000480c5a6"},"data":[{"questionScores":[2406,11,2400,2406,2424,28,-1,10,2397,21],"questionIndicies":[21,47,3,1,40,38,5,24,25,44],"judgmentIndicies":[1,0],"internal_node_id":"0.0-0.0","time_elapsed":4082,"trial_index":0,"trial_type":"survey-multi-choice","responses":"{\"Q0\":\"I consent to participate\"}","rt":4066},{"questionScores":[2406,11,2400,2406,2424,28,-1,10,2397,21],"questionIndicies":[21,47,3,1,40,38,5,24,25,44],"judgmentIndicies":[1,0],"internal_node_id":"0.0-1.0","time_elapsed":18207,"trial_index":1,"trial_type":"instructions","rt":13123,"view_history":"[{\"page_index\":0,\"viewing_time\":13123}]"},{"questionScores":[2406,11,2400,2406,2424,28,-1,10,2397,21],"questionIndicies":[21,47,3,1,40,38,5,24,25,44],"judgmentIndicies":[1,0],"internal_node_id":"0.0-2.0","time_elapsed":25838,"trial_index":2,"trial_type":"instructions","rt":6630,"view_history":"[{\"page_index\":0,\"viewing_time\":6629}]"},{"questionScores":[2406,11,2400,2406,2424,28,-1,10,2397,21],"questionIndicies":[21,47,3,1,40,38,5,24,25,44],"judgmentIndicies":[1,0],"internal_node_id":"0.0-3.0-0.0","time_elapsed":36560,"trial_index":3,"trial_type":"survey-likert","responses":"{\"Q0\":\"5\",\"Q1\":\"4\"}","rt":9709},{"questionScores":[2406,11,2400,2406,2424,28,-1,10,2397,21],"questionIndicies":[21,47,3,1,40,38,5,24,25,44],"judgmentIndicies":[1,0],"internal_node_id":"0.0-3.0-1.0","time_elapsed":42622,"trial_index":4,"trial_type":"survey-likert","responses":"{\"Q0\":\"2\",\"Q1\":\"3\"}","rt":5059},{"questionScores":[2406,11,2400,2406,2424,28,-1,10,2397,21],"questionIndicies":[21,47,3,1,40,38,5,24,25,44],"judgmentIndicies":[1,0],"internal_node_id":"0.0-3.0-2.0","time_elapsed":48654,"trial_index":5,"trial_type":"survey-likert","responses":"{\"Q0\":\"5\",\"Q1\":\"5\"}","rt":5028},{"questionScores":[2406,11,2400,2406,2424,28,-1,10,2397,21],"questionIndicies":[21,47,3,1,40,38,5,24,25,44],"judgmentIndicies":[1,0],"internal_node_id":"0.0-3.0-3.0","time_elapsed":54166,"trial_index":6,"trial_type":"survey-likert","responses":"{\"Q0\":\"4\",\"Q1\":\"2\"}","rt":4508},{"questionScores":[2406,11,2400,2406,2424,28,-1,10,2397,21],"questionIndicies":[21,47,3,1,40,38,5,24,25,44],"judgmentIndicies":[1,0],"internal_node_id":"0.0-3.0-4.0","time_elapsed":59598,"trial_index":7,"trial_type":"survey-likert","responses":"{\"Q0\":\"4\",\"Q1\":\"2\"}","rt":4427},{"questionScores":[2406,11,2400,2406,2424,28,-1,10,2397,21],"questionIndicies":[21,47,3,1,40,38,5,24,25,44],"judgmentIndicies":[1,0],"internal_node_id":"0.0-3.0-5.0","time_elapsed":66325,"trial_index":8,"trial_type":"survey-likert","responses":"{\"Q0\":\"2\",\"Q1\":\"2\"}","rt":5725},{"questionScores":[2406,11,2400,2406,2424,28,-1,10,2397,21],"questionIndicies":[21,47,3,1,40,38,5,24,25,44],"judgmentIndicies":[1,0],"internal_node_id":"0.0-3.0-6.0","time_elapsed":75661,"trial_index":9,"trial_type":"survey-likert","responses":"{\"Q0\":\"1\",\"Q1\":\"2\"}","rt":8332},{"questionScores":[2406,11,2400,2406,2424,28,-1,10,2397,21],"questionIndicies":[21,47,3,1,40,38,5,24,25,44],"judgmentIndicies":[1,0],"internal_node_id":"0.0-3.0-7.0","time_elapsed":79901,"trial_index":10,"trial_type":"survey-likert","responses":"{\"Q0\":\"2\",\"Q1\":\"2\"}","rt":3237},{"questionScores":[2406,11,2400,2406,2424,28,-1,10,2397,21],"questionIndicies":[21,47,3,1,40,38,5,24,25,44],"judgmentIndicies":[1,0],"internal_node_id":"0.0-3.0-8.0","time_elapsed":86093,"trial_index":11,"trial_type":"survey-likert","responses":"{\"Q0\":\"4\",\"Q1\":\"3\"}","rt":5187},{"questionScores":[2406,11,2400,2406,2424,28,-1,10,2397,21],"questionIndicies":[21,47,3,1,40,38,5,24,25,44],"judgmentIndicies":[1,0],"internal_node_id":"0.0-3.0-9.0","time_elapsed":90141,"trial_index":12,"trial_type":"survey-likert","responses":"{\"Q0\":\"2\",\"Q1\":\"2\"}","rt":3044},{"questionScores":[2406,11,2400,2406,2424,28,-1,10,2397,21],"questionIndicies":[21,47,3,1,40,38,5,24,25,44],"judgmentIndicies":[1,0],"internal_node_id":"0.0-4.0","time_elapsed":93556,"trial_index":13,"trial_type":"instructions","rt":2414,"view_history":"[{\"page_index\":0,\"viewing_time\":2414}]"},{"questionScores":[2406,11,2400,2406,2424,28,-1,10,2397,21],"questionIndicies":[21,47,3,1,40,38,5,24,25,44],"judgmentIndicies":[1,0],"internal_node_id":"0.0-5.0","time_elapsed":123831,"trial_index":14,"trial_type":"survey-multi-choose","responses":"{\"Q0\":\"Reveal Answer\",\"Q1\":\"Keep Hidden\",\"Q2\":\"Reveal Answer\",\"Q3\":\"Keep Hidden\",\"Q4\":\"Keep Hidden\",\"Q5\":\"Reveal Answer\",\"Q6\":\"Keep Hidden\",\"Q7\":\"Reveal Answer\",\"Q8\":\"Keep Hidden\",\"Q9\":\"Reveal Answer\"}","rt":29259},{"questionScores":[2406,11,2400,2406,2424,28,-1,10,2397,21],"questionIndicies":[21,47,3,1,40,38,5,24,25,44],"judgmentIndicies":[1,0],"internal_node_id":"0.0-6.0","time_elapsed":167380,"trial_index":15,"trial_type":"instructions","rt":42540,"view_history":"[{\"page_index\":0,\"viewing_time\":42540}]"}],"__v":0}
{"_id":{"$oid":"5a6b8e92d960b6000480c5a7"},"data":[{"questionScores":[2407,32,41,25,39,2412,2394,2399,11,2400],"questionIndicies":[25,28,45,49,15,42,36,3,21,14],"judgmentIndicies":[1,0],"internal_node_id":"0.0-0.0","time_elapsed":7118,"trial_index":0,"trial_type":"survey-multi-choice","responses":"{\"Q0\":\"I consent to participate\"}","rt":7097},{"questionScores":[2407,32,41,25,39,2412,2394,2399,11,2400],"questionIndicies":[25,28,45,49,15,42,36,3,21,14],"judgmentIndicies":[1,0],"internal_node_id":"0.0-1.0","time_elapsed":11501,"trial_index":1,"trial_type":"instructions","rt":3377,"view_history":"[{\"page_index\":0,\"viewing_time\":3374}]"},{"questionScores":[2407,32,41,25,39,2412,2394,2399,11,2400],"questionIndicies":[25,28,45,49,15,42,36,3,21,14],"judgmentIndicies":[1,0],"internal_node_id":"0.0-2.0","time_elapsed":20841,"trial_index":2,"trial_type":"instructions","rt":8327,"view_history":"[{\"page_index\":0,\"viewing_time\":8325}]"},{"questionScores":[2407,32,41,25,39,2412,2394,2399,11,2400],"questionIndicies":[25,28,45,49,15,42,36,3,21,14],"judgmentIndicies":[1,0],"internal_node_id":"0.0-3.0-0.0","time_elapsed":32151,"trial_index":3,"trial_type":"survey-likert","responses":"{\"Q0\":\"4\",\"Q1\":\"3\"}","rt":10292},{"questionScores":[2407,32,41,25,39,2412,2394,2399,11,2400],"questionIndicies":[25,28,45,49,15,42,36,3,21,14],"judgmentIndicies":[1,0],"internal_node_id":"0.0-3.0-1.0","time_elapsed":37843,"trial_index":4,"trial_type":"survey-likert","responses":"{\"Q0\":\"0\",\"Q1\":\"2\"}","rt":4680},{"questionScores":[2407,32,41,25,39,2412,2394,2399,11,2400],"questionIndicies":[25,28,45,49,15,42,36,3,21,14],"judgmentIndicies":[1,0],"internal_node_id":"0.0-3.0-2.0","time_elapsed":42863,"trial_index":5,"trial_type":"survey-likert","responses":"{\"Q0\":\"0\",\"Q1\":\"1\"}","rt":3999},{"questionScores":[2407,32,41,25,39,2412,2394,2399,11,2400],"questionIndicies":[25,28,45,49,15,42,36,3,21,14],"judgmentIndicies":[1,0],"internal_node_id":"0.0-3.0-3.0","time_elapsed":48953,"trial_index":6,"trial_type":"survey-likert","responses":"{\"Q0\":\"1\",\"Q1\":\"1\"}","rt":5081},{"questionScores":[2407,32,41,25,39,2412,2394,2399,11,2400],"questionIndicies":[25,28,45,49,15,42,36,3,21,14],"judgmentIndicies":[1,0],"internal_node_id":"0.0-3.0-4.0","time_elapsed":55044,"trial_index":7,"trial_type":"survey-likert","responses":"{\"Q0\":\"2\",\"Q1\":\"3\"}","rt":5079},{"questionScores":[2407,32,41,25,39,2412,2394,2399,11,2400],"questionIndicies":[25,28,45,49,15,42,36,3,21,14],"judgmentIndicies":[1,0],"internal_node_id":"0.0-3.0-5.0","time_elapsed":61014,"trial_index":8,"trial_type":"survey-likert","responses":"{\"Q0\":\"5\",\"Q1\":\"3\"}","rt":4954},{"questionScores":[2407,32,41,25,39,2412,2394,2399,11,2400],"questionIndicies":[25,28,45,49,15,42,36,3,21,14],"judgmentIndicies":[1,0],"internal_node_id":"0.0-3.0-6.0","time_elapsed":66437,"trial_index":9,"trial_type":"survey-likert","responses":"{\"Q0\":\"5\",\"Q1\":\"2\"}","rt":4409},{"questionScores":[2407,32,41,25,39,2412,2394,2399,11,2400],"questionIndicies":[25,28,45,49,15,42,36,3,21,14],"judgmentIndicies":[1,0],"internal_node_id":"0.0-3.0-7.0","time_elapsed":72158,"trial_index":10,"trial_type":"survey-likert","responses":"{\"Q0\":\"6\",\"Q1\":\"5\"}","rt":4706},{"questionScores":[2407,32,41,25,39,2412,2394,2399,11,2400],"questionIndicies":[25,28,45,49,15,42,36,3,21,14],"judgmentIndicies":[1,0],"internal_node_id":"0.0-3.0-8.0","time_elapsed":81754,"trial_index":11,"trial_type":"survey-likert","responses":"{\"Q0\":\"2\",\"Q1\":\"1\"}","rt":8577},{"questionScores":[2407,32,41,25,39,2412,2394,2399,11,2400],"questionIndicies":[25,28,45,49,15,42,36,3,21,14],"judgmentIndicies":[1,0],"internal_node_id":"0.0-3.0-9.0","time_elapsed":88270,"trial_index":12,"trial_type":"survey-likert","responses":"{\"Q0\":\"4\",\"Q1\":\"2\"}","rt":5503},{"questionScores":[2407,32,41,25,39,2412,2394,2399,11,2400],"questionIndicies":[25,28,45,49,15,42,36,3,21,14],"judgmentIndicies":[1,0],"internal_node_id":"0.0-4.0","time_elapsed":97885,"trial_index":13,"trial_type":"instructions","rt":8611,"view_history":"[{\"page_index\":0,\"viewing_time\":8610}]"},{"questionScores":[2407,32,41,25,39,2412,2394,2399,11,2400],"questionIndicies":[25,28,45,49,15,42,36,3,21,14],"judgmentIndicies":[1,0],"internal_node_id":"0.0-5.0","time_elapsed":128390,"trial_index":14,"trial_type":"survey-multi-choose","responses":"{\"Q0\":\"Reveal Answer\",\"Q1\":\"Keep Hidden\",\"Q2\":\"Keep Hidden\",\"Q3\":\"Keep Hidden\",\"Q4\":\"Reveal Answer\",\"Q5\":\"Reveal Answer\",\"Q6\":\"Reveal Answer\",\"Q7\":\"Reveal Answer\",\"Q8\":\"Keep Hidden\",\"Q9\":\"Keep Hidden\"}","rt":29461},{"questionScores":[2407,32,41,25,39,2412,2394,2399,11,2400],"questionIndicies":[25,28,45,49,15,42,36,3,21,14],"judgmentIndicies":[1,0],"internal_node_id":"0.0-6.0","time_elapsed":149297,"trial_index":15,"trial_type":"instructions","rt":19869,"view_history":"[{\"page_index\":0,\"viewing_time\":19868}]"}],"__v":0}
{"_id":{"$oid":"5a6b8e96d960b6000480c5a8"},"data":[{"questionScores":[32,2415,2404,29,2392,2411,28,2401,18,20],"questionIndicies":[33,6,41,29,40,23,12,31,4,14],"judgmentIndicies":[0,1],"internal_node_id":"0.0-0.0","time_elapsed":3202,"trial_index":0,"trial_type":"survey-multi-choice","responses":"{\"Q0\":\"I consent to participate\"}","rt":3193},{"questionScores":[32,2415,2404,29,2392,2411,28,2401,18,20],"questionIndicies":[33,6,41,29,40,23,12,31,4,14],"judgmentIndicies":[0,1],"internal_node_id":"0.0-1.0","time_elapsed":6329,"trial_index":1,"trial_type":"instructions","rt":2126,"view_history":"[{\"page_index\":0,\"viewing_time\":2125}]"},{"questionScores":[32,2415,2404,29,2392,2411,28,2401,18,20],"questionIndicies":[33,6,41,29,40,23,12,31,4,14],"judgmentIndicies":[0,1],"internal_node_id":"0.0-2.0","time_elapsed":9224,"trial_index":2,"trial_type":"instructions","rt":1887,"view_history":"[{\"page_index\":0,\"viewing_time\":1887}]"},{"questionScores":[32,2415,2404,29,2392,2411,28,2401,18,20],"questionIndicies":[33,6,41,29,40,23,12,31,4,14],"judgmentIndicies":[0,1],"internal_node_id":"0.0-3.0-0.0","time_elapsed":20800,"trial_index":3,"trial_type":"survey-likert","responses":"{\"Q0\":\"1\",\"Q1\":\"1\"}","rt":10573},{"questionScores":[32,2415,2404,29,2392,2411,28,2401,18,20],"questionIndicies":[33,6,41,29,40,23,12,31,4,14],"judgmentIndicies":[0,1],"internal_node_id":"0.0-3.0-1.0","time_elapsed":27439,"trial_index":4,"trial_type":"survey-likert","responses":"{\"Q0\":\"3\",\"Q1\":\"5\"}","rt":5632},{"questionScores":[32,2415,2404,29,2392,2411,28,2401,18,20],"questionIndicies":[33,6,41,29,40,23,12,31,4,14],"judgmentIndicies":[0,1],"internal_node_id":"0.0-3.0-2.0","time_elapsed":33807,"trial_index":5,"trial_type":"survey-likert","responses":"{\"Q0\":\"5\",\"Q1\":\"5\"}","rt":5362},{"questionScores":[32,2415,2404,29,2392,2411,28,2401,18,20],"questionIndicies":[33,6,41,29,40,23,12,31,4,14],"judgmentIndicies":[0,1],"internal_node_id":"0.0-3.0-3.0","time_elapsed":42542,"trial_index":6,"trial_type":"survey-likert","responses":"{\"Q0\":\"1\",\"Q1\":\"0\"}","rt":7732},{"questionScores":[32,2415,2404,29,2392,2411,28,2401,18,20],"questionIndicies":[33,6,41,29,40,23,12,31,4,14],"judgmentIndicies":[0,1],"internal_node_id":"0.0-3.0-4.0","time_elapsed":52509,"trial_index":7,"trial_type":"survey-likert","responses":"{\"Q0\":\"4\",\"Q1\":\"6\"}","rt":8966},{"questionScores":[32,2415,2404,29,2392,2411,28,2401,18,20],"questionIndicies":[33,6,41,29,40,23,12,31,4,14],"judgmentIndicies":[0,1],"internal_node_id":"0.0-3.0-5.0","time_elapsed":60795,"trial_index":8,"trial_type":"survey-likert","responses":"{\"Q0\":\"3\",\"Q1\":\"5\"}","rt":7283},{"questionScores":[32,2415,2404,29,2392,2411,28,2401,18,20],"questionIndicies":[33,6,41,29,40,23,12,31,4,14],"judgmentIndicies":[0,1],"internal_node_id":"0.0-3.0-6.0","time_elapsed":75915,"trial_index":9,"trial_type":"survey-likert","responses":"{\"Q0\":\"0\",\"Q1\":\"0\"}","rt":14118},{"questionScores":[32,2415,2404,29,2392,2411,28,2401,18,20],"questionIndicies":[33,6,41,29,40,23,12,31,4,14],"judgmentIndicies":[0,1],"internal_node_id":"0.0-3.0-7.0","time_elapsed":83698,"trial_index":10,"trial_type":"survey-likert","responses":"{\"Q0\":\"3\",\"Q1\":\"5\"}","rt":6780},{"questionScores":[32,2415,2404,29,2392,2411,28,2401,18,20],"questionIndicies":[33,6,41,29,40,23,12,31,4,14],"judgmentIndicies":[0,1],"internal_node_id":"0.0-3.0-8.0","time_elapsed":93393,"trial_index":11,"trial_type":"survey-likert","responses":"{\"Q0\":\"1\",\"Q1\":\"0\"}","rt":8692},{"questionScores":[32,2415,2404,29,2392,2411,28,2401,18,20],"questionIndicies":[33,6,41,29,40,23,12,31,4,14],"judgmentIndicies":[0,1],"internal_node_id":"0.0-3.0-9.0","time_elapsed":100617,"trial_index":12,"trial_type":"survey-likert","responses":"{\"Q0\":\"1\",\"Q1\":\"1\"}","rt":6221},{"questionScores":[32,2415,2404,29,2392,2411,28,2401,18,20],"questionIndicies":[33,6,41,29,40,23,12,31,4,14],"judgmentIndicies":[0,1],"internal_node_id":"0.0-4.0","time_elapsed":106336,"trial_index":13,"trial_type":"instructions","rt":4718,"view_history":"[{\"page_index\":0,\"viewing_time\":4718}]"},{"questionScores":[32,2415,2404,29,2392,2411,28,2401,18,20],"questionIndicies":[33,6,41,29,40,23,12,31,4,14],"judgmentIndicies":[0,1],"internal_node_id":"0.0-5.0","time_elapsed":144620,"trial_index":14,"trial_type":"survey-multi-choose","responses":"{\"Q0\":\"Keep Hidden\",\"Q1\":\"Reveal Answer\",\"Q2\":\"Reveal Answer\",\"Q3\":\"Keep Hidden\",\"Q4\":\"Reveal Answer\",\"Q5\":\"Reveal Answer\",\"Q6\":\"Keep Hidden\",\"Q7\":\"Keep Hidden\",\"Q8\":\"Reveal Answer\",\"Q9\":\"Keep Hidden\"}","rt":37273},{"questionScores":[32,2415,2404,29,2392,2411,28,2401,18,20],"questionIndicies":[33,6,41,29,40,23,12,31,4,14],"judgmentIndicies":[0,1],"internal_node_id":"0.0-6.0","time_elapsed":160354,"trial_index":15,"trial_type":"instructions","rt":14729,"view_history":"[{\"page_index\":0,\"viewing_time\":14728}]"}],"__v":0}
{"_id":{"$oid":"5a6b8e97d960b6000480c5a9"},"data":[{"questionScores":[2421,23,34,2390,31,1,2413,2419,2380,16],"questionIndicies":[5,26,37,15,45,4,36,18,23,9],"judgmentIndicies":[1,0],"internal_node_id":"0.0-0.0","time_elapsed":3875,"trial_index":0,"trial_type":"survey-multi-choice","responses":"{\"Q0\":\"I consent to participate\"}","rt":3850},{"questionScores":[2421,23,34,2390,31,1,2413,2419,2380,16],"questionIndicies":[5,26,37,15,45,4,36,18,23,9],"judgmentIndicies":[1,0],"internal_node_id":"0.0-1.0","time_elapsed":6622,"trial_index":1,"trial_type":"instructions","rt":1745,"view_history":"[{\"page_index\":0,\"viewing_time\":1744}]"},{"questionScores":[2421,23,34,2390,31,1,2413,2419,2380,16],"questionIndicies":[5,26,37,15,45,4,36,18,23,9],"judgmentIndicies":[1,0],"internal_node_id":"0.0-2.0","time_elapsed":11212,"trial_index":2,"trial_type":"instructions","rt":3573,"view_history":"[{\"page_index\":0,\"viewing_time\":3572}]"},{"questionScores":[2421,23,34,2390,31,1,2413,2419,2380,16],"questionIndicies":[5,26,37,15,45,4,36,18,23,9],"judgmentIndicies":[1,0],"internal_node_id":"0.0-3.0-0.0","time_elapsed":19745,"trial_index":3,"trial_type":"survey-likert","responses":"{\"Q0\":\"5\",\"Q1\":\"4\"}","rt":7526},{"questionScores":[2421,23,34,2390,31,1,2413,2419,2380,16],"questionIndicies":[5,26,37,15,45,4,36,18,23,9],"judgmentIndicies":[1,0],"internal_node_id":"0.0-3.0-1.0","time_elapsed":24687,"trial_index":4,"trial_type":"survey-likert","responses":"{\"Q0\":\"2\",\"Q1\":\"1\"}","rt":3935},{"questionScores":[2421,23,34,2390,31,1,2413,2419,2380,16],"questionIndicies":[5,26,37,15,45,4,36,18,23,9],"judgmentIndicies":[1,0],"internal_node_id":"0.0-3.0-2.0","time_elapsed":29323,"trial_index":5,"trial_type":"survey-likert","responses":"{\"Q0\":\"3\",\"Q1\":\"2\"}","rt":3632},{"questionScores":[2421,23,34,2390,31,1,2413,2419,2380,16],"questionIndicies":[5,26,37,15,45,4,36,18,23,9],"judgmentIndicies":[1,0],"internal_node_id":"0.0-3.0-3.0","time_elapsed":34004,"trial_index":6,"trial_type":"survey-likert","responses":"{\"Q0\":\"5\",\"Q1\":\"4\"}","rt":3676},{"questionScores":[2421,23,34,2390,31,1,2413,2419,2380,16],"questionIndicies":[5,26,37,15,45,4,36,18,23,9],"judgmentIndicies":[1,0],"internal_node_id":"0.0-3.0-4.0","time_elapsed":38531,"trial_index":7,"trial_type":"survey-likert","responses":"{\"Q0\":\"2\",\"Q1\":\"2\"}","rt":3523},{"questionScores":[2421,23,34,2390,31,1,2413,2419,2380,16],"questionIndicies":[5,26,37,15,45,4,36,18,23,9],"judgmentIndicies":[1,0],"internal_node_id":"0.0-3.0-5.0","time_elapsed":42828,"trial_index":8,"trial_type":"survey-likert","responses":"{\"Q0\":\"1\",\"Q1\":\"1\"}","rt":3292},{"questionScores":[2421,23,34,2390,31,1,2413,2419,2380,16],"questionIndicies":[5,26,37,15,45,4,36,18,23,9],"judgmentIndicies":[1,0],"internal_node_id":"0.0-3.0-6.0","time_elapsed":47525,"trial_index":9,"trial_type":"survey-likert","responses":"{\"Q0\":\"5\",\"Q1\":\"5\"}","rt":3693},{"questionScores":[2421,23,34,2390,31,1,2413,2419,2380,16],"questionIndicies":[5,26,37,15,45,4,36,18,23,9],"judgmentIndicies":[1,0],"internal_node_id":"0.0-3.0-7.0","time_elapsed":52860,"trial_index":10,"trial_type":"survey-likert","responses":"{\"Q0\":\"5\",\"Q1\":\"4\"}","rt":4330},{"questionScores":[2421,23,34,2390,31,1,2413,2419,2380,16],"questionIndicies":[5,26,37,15,45,4,36,18,23,9],"judgmentIndicies":[1,0],"internal_node_id":"0.0-3.0-8.0","time_elapsed":57833,"trial_index":11,"trial_type":"survey-likert","responses":"{\"Q0\":\"6\",\"Q1\":\"6\"}","rt":3963},{"questionScores":[2421,23,34,2390,31,1,2413,2419,2380,16],"questionIndicies":[5,26,37,15,45,4,36,18,23,9],"judgmentIndicies":[1,0],"internal_node_id":"0.0-3.0-9.0","time_elapsed":62380,"trial_index":12,"trial_type":"survey-likert","responses":"{\"Q0\":\"1\",\"Q1\":\"1\"}","rt":3544},{"questionScores":[2421,23,34,2390,31,1,2413,2419,2380,16],"questionIndicies":[5,26,37,15,45,4,36,18,23,9],"judgmentIndicies":[1,0],"internal_node_id":"0.0-4.0","time_elapsed":67825,"trial_index":13,"trial_type":"instructions","rt":4443,"view_history":"[{\"page_index\":0,\"viewing_time\":4442}]"},{"questionScores":[2421,23,34,2390,31,1,2413,2419,2380,16],"questionIndicies":[5,26,37,15,45,4,36,18,23,9],"judgmentIndicies":[1,0],"internal_node_id":"0.0-5.0","time_elapsed":91476,"trial_index":14,"trial_type":"survey-multi-choose","responses":"{\"Q0\":\"Reveal Answer\",\"Q1\":\"Reveal Answer\",\"Q2\":\"Reveal Answer\",\"Q3\":\"Reveal Answer\",\"Q4\":\"Keep Hidden\",\"Q5\":\"Keep Hidden\",\"Q6\":\"Reveal Answer\",\"Q7\":\"Keep Hidden\",\"Q8\":\"Keep Hidden\",\"Q9\":\"Keep Hidden\"}","rt":22622},{"questionScores":[2421,23,34,2390,31,1,2413,2419,2380,16],"questionIndicies":[5,26,37,15,45,4,36,18,23,9],"judgmentIndicies":[1,0],"internal_node_id":"0.0-6.0","time_elapsed":96780,"trial_index":15,"trial_type":"instructions","rt":4295,"view_history":"[{\"page_index\":0,\"viewing_time\":4294}]"}],"__v":0}
{"_id":{"$oid":"5a6b8e99d960b6000480c5aa"},"data":[{"questionScores":[27,2413,28,26,2414,38,23,2396,2408,2407],"questionIndicies":[18,35,3,8,40,33,39,41,46,5],"judgmentIndicies":[0,1],"internal_node_id":"0.0-0.0","time_elapsed":5220,"trial_index":0,"trial_type":"survey-multi-choice","responses":"{\"Q0\":\"I consent to participate\"}","rt":5206},{"questionScores":[27,2413,28,26,2414,38,23,2396,2408,2407],"questionIndicies":[18,35,3,8,40,33,39,41,46,5],"judgmentIndicies":[0,1],"internal_node_id":"0.0-1.0","time_elapsed":8218,"trial_index":1,"trial_type":"instructions","rt":1997,"view_history":"[{\"page_index\":0,\"viewing_time\":1996}]"},{"questionScores":[27,2413,28,26,2414,38,23,2396,2408,2407],"questionIndicies":[18,35,3,8,40,33,39,41,46,5],"judgmentIndicies":[0,1],"internal_node_id":"0.0-2.0","time_elapsed":30881,"trial_index":2,"trial_type":"instructions","rt":21662,"view_history":"[{\"page_index\":0,\"viewing_time\":21662}]"},{"questionScores":[27,2413,28,26,2414,38,23,2396,2408,2407],"questionIndicies":[18,35,3,8,40,33,39,41,46,5],"judgmentIndicies":[0,1],"internal_node_id":"0.0-3.0-0.0","time_elapsed":41458,"trial_index":3,"trial_type":"survey-likert","responses":"{\"Q0\":\"4\",\"Q1\":\"5\"}","rt":9572},{"questionScores":[27,2413,28,26,2414,38,23,2396,2408,2407],"questionIndicies":[18,35,3,8,40,33,39,41,46,5],"judgmentIndicies":[0,1],"internal_node_id":"0.0-3.0-1.0","time_elapsed":49001,"trial_index":4,"trial_type":"survey-likert","responses":"{\"Q0\":\"1\",\"Q1\":\"6\"}","rt":6541},{"questionScores":[27,2413,28,26,2414,38,23,2396,2408,2407],"questionIndicies":[18,35,3,8,40,33,39,41,46,5],"judgmentIndicies":[0,1],"internal_node_id":"0.0-3.0-2.0","time_elapsed":52977,"trial_index":5,"trial_type":"survey-likert","responses":"{\"Q0\":\"1\",\"Q1\":\"0\"}","rt":2974},{"questionScores":[27,2413,28,26,2414,38,23,2396,2408,2407],"questionIndicies":[18,35,3,8,40,33,39,41,46,5],"judgmentIndicies":[0,1],"internal_node_id":"0.0-3.0-3.0","time_elapsed":57738,"trial_index":6,"trial_type":"survey-likert","responses":"{\"Q0\":\"1\",\"Q1\":\"0\"}","rt":3758},{"questionScores":[27,2413,28,26,2414,38,23,2396,2408,2407],"questionIndicies":[18,35,3,8,40,33,39,41,46,5],"judgmentIndicies":[0,1],"internal_node_id":"0.0-3.0-4.0","time_elapsed":64577,"trial_index":7,"trial_type":"survey-likert","responses":"{\"Q0\":\"6\",\"Q1\":\"6\"}","rt":5837},{"questionScores":[27,2413,28,26,2414,38,23,2396,2408,2407],"questionIndicies":[18,35,3,8,40,33,39,41,46,5],"judgmentIndicies":[0,1],"internal_node_id":"0.0-3.0-5.0","time_elapsed":78609,"trial_index":8,"trial_type":"survey-likert","responses":"{\"Q0\":\"2\",\"Q1\":\"1\"}","rt":13031},{"questionScores":[27,2413,28,26,2414,38,23,2396,2408,2407],"questionIndicies":[18,35,3,8,40,33,39,41,46,5],"judgmentIndicies":[0,1],"internal_node_id":"0.0-3.0-6.0","time_elapsed":95481,"trial_index":9,"trial_type":"survey-likert","responses":"{\"Q0\":\"6\",\"Q1\":\"0\"}","rt":15870},{"questionScores":[27,2413,28,26,2414,38,23,2396,2408,2407],"questionIndicies":[18,35,3,8,40,33,39,41,46,5],"judgmentIndicies":[0,1],"internal_node_id":"0.0-3.0-7.0","time_elapsed":101241,"trial_index":10,"trial_type":"survey-likert","responses":"{\"Q0\":\"0\",\"Q1\":\"6\"}","rt":4758},{"questionScores":[27,2413,28,26,2414,38,23,2396,2408,2407],"questionIndicies":[18,35,3,8,40,33,39,41,46,5],"judgmentIndicies":[0,1],"internal_node_id":"0.0-3.0-8.0","time_elapsed":106593,"trial_index":11,"trial_type":"survey-likert","responses":"{\"Q0\":\"2\",\"Q1\":\"5\"}","rt":4350},{"questionScores":[27,2413,28,26,2414,38,23,2396,2408,2407],"questionIndicies":[18,35,3,8,40,33,39,41,46,5],"judgmentIndicies":[0,1],"internal_node_id":"0.0-3.0-9.0","time_elapsed":111225,"trial_index":12,"trial_type":"survey-likert","responses":"{\"Q0\":\"6\",\"Q1\":\"6\"}","rt":3630},{"questionScores":[27,2413,28,26,2414,38,23,2396,2408,2407],"questionIndicies":[18,35,3,8,40,33,39,41,46,5],"judgmentIndicies":[0,1],"internal_node_id":"0.0-4.0","time_elapsed":120457,"trial_index":13,"trial_type":"instructions","rt":8231,"view_history":"[{\"page_index\":0,\"viewing_time\":8231}]"},{"questionScores":[27,2413,28,26,2414,38,23,2396,2408,2407],"questionIndicies":[18,35,3,8,40,33,39,41,46,5],"judgmentIndicies":[0,1],"internal_node_id":"0.0-5.0","time_elapsed":141467,"trial_index":14,"trial_type":"survey-multi-choose","responses":"{\"Q0\":\"Reveal Answer\",\"Q1\":\"Keep Hidden\",\"Q2\":\"Keep Hidden\",\"Q3\":\"Keep Hidden\",\"Q4\":\"Reveal Answer\",\"Q5\":\"Keep Hidden\",\"Q6\":\"Reveal Answer\",\"Q7\":\"Keep Hidden\",\"Q8\":\"Reveal Answer\",\"Q9\":\"Reveal Answer\"}","rt":20001},{"questionScores":[27,2413,28,26,2414,38,23,2396,2408,2407],"questionIndicies":[18,35,3,8,40,33,39,41,46,5],"judgmentIndicies":[0,1],"internal_node_id":"0.0-6.0","time_elapsed":195049,"trial_index":15,"trial_type":"instructions","rt":52576,"view_history":"[{\"page_index\":0,\"viewing_time\":52576}]"}],"__v":0}
{"_id":{"$oid":"5a6b8e99d960b6000480c5ab"},"data":[{"questionScores":[2416,2400,20,22,25,4,2407,22,2404,2409],"questionIndicies":[33,38,7,12,2,25,15,37,19,48],"judgmentIndicies":[0,1],"internal_node_id":"0.0-0.0","time_elapsed":10087,"trial_index":0,"trial_type":"survey-multi-choice","responses":"{\"Q0\":\"I consent to participate\"}","rt":10059},{"questionScores":[2416,2400,20,22,25,4,2407,22,2404,2409],"questionIndicies":[33,38,7,12,2,25,15,37,19,48],"judgmentIndicies":[0,1],"internal_node_id":"0.0-1.0","time_elapsed":16150,"trial_index":1,"trial_type":"instructions","rt":5058,"view_history":"[{\"page_index\":0,\"viewing_time\":5055}]"},{"questionScores":[2416,2400,20,22,25,4,2407,22,2404,2409],"questionIndicies":[33,38,7,12,2,25,15,37,19,48],"judgmentIndicies":[0,1],"internal_node_id":"0.0-2.0","time_elapsed":35790,"trial_index":2,"trial_type":"instructions","rt":18638,"view_history":"[{\"page_index\":0,\"viewing_time\":18636}]"},{"questionScores":[2416,2400,20,22,25,4,2407,22,2404,2409],"questionIndicies":[33,38,7,12,2,25,15,37,19,48],"judgmentIndicies":[0,1],"internal_node_id":"0.0-3.0-0.0","time_elapsed":45268,"trial_index":3,"trial_type":"survey-likert","responses":"{\"Q0\":\"3\",\"Q1\":\"5\"}","rt":8459},{"questionScores":[2416,2400,20,22,25,4,2407,22,2404,2409],"questionIndicies":[33,38,7,12,2,25,15,37,19,48],"judgmentIndicies":[0,1],"internal_node_id":"0.0-3.0-1.0","time_elapsed":51622,"trial_index":4,"trial_type":"survey-likert","responses":"{\"Q0\":\"2\",\"Q1\":\"2\"}","rt":5344},{"questionScores":[2416,2400,20,22,25,4,2407,22,2404,2409],"questionIndicies":[33,38,7,12,2,25,15,37,19,48],"judgmentIndicies":[0,1],"internal_node_id":"0.0-3.0-2.0","time_elapsed":56524,"trial_index":5,"trial_type":"survey-likert","responses":"{\"Q0\":\"0\",\"Q1\":\"0\"}","rt":3891},{"questionScores":[2416,2400,20,22,25,4,2407,22,2404,2409],"questionIndicies":[33,38,7,12,2,25,15,37,19,48],"judgmentIndicies":[0,1],"internal_node_id":"0.0-3.0-3.0","time_elapsed":60604,"trial_index":6,"trial_type":"survey-likert","responses":"{\"Q0\":\"0\",\"Q1\":\"0\"}","rt":3068},{"questionScores":[2416,2400,20,22,25,4,2407,22,2404,2409],"questionIndicies":[33,38,7,12,2,25,15,37,19,48],"judgmentIndicies":[0,1],"internal_node_id":"0.0-3.0-4.0","time_elapsed":64748,"trial_index":7,"trial_type":"survey-likert","responses":"{\"Q0\":\"1\",\"Q1\":\"0\"}","rt":3122},{"questionScores":[2416,2400,20,22,25,4,2407,22,2404,2409],"questionIndicies":[33,38,7,12,2,25,15,37,19,48],"judgmentIndicies":[0,1],"internal_node_id":"0.0-3.0-5.0","time_elapsed":68215,"trial_index":8,"trial_type":"survey-likert","responses":"{\"Q0\":\"1\",\"Q1\":\"0\"}","rt":2457},{"questionScores":[2416,2400,20,22,25,4,2407,22,2404,2409],"questionIndicies":[33,38,7,12,2,25,15,37,19,48],"judgmentIndicies":[0,1],"internal_node_id":"0.0-3.0-6.0","time_elapsed":72633,"trial_index":9,"trial_type":"survey-likert","responses":"{\"Q0\":\"0\",\"Q1\":\"3\"}","rt":3408},{"questionScores":[2416,2400,20,22,25,4,2407,22,2404,2409],"questionIndicies":[33,38,7,12,2,25,15,37,19,48],"judgmentIndicies":[0,1],"internal_node_id":"0.0-3.0-7.0","time_elapsed":75914,"trial_index":10,"trial_type":"survey-likert","responses":"{\"Q0\":\"0\",\"Q1\":\"0\"}","rt":2271},{"questionScores":[2416,2400,20,22,25,4,2407,22,2404,2409],"questionIndicies":[33,38,7,12,2,25,15,37,19,48],"judgmentIndicies":[0,1],"internal_node_id":"0.0-3.0-8.0","time_elapsed":81339,"trial_index":11,"trial_type":"survey-likert","responses":"{\"Q0\":\"3\",\"Q1\":\"4\"}","rt":4416},{"questionScores":[2416,2400,20,22,25,4,2407,22,2404,2409],"questionIndicies":[33,38,7,12,2,25,15,37,19,48],"judgmentIndicies":[0,1],"internal_node_id":"0.0-3.0-9.0","time_elapsed":85285,"trial_index":12,"trial_type":"survey-likert","responses":"{\"Q0\":\"2\",\"Q1\":\"4\"}","rt":2931},{"questionScores":[2416,2400,20,22,25,4,2407,22,2404,2409],"questionIndicies":[33,38,7,12,2,25,15,37,19,48],"judgmentIndicies":[0,1],"internal_node_id":"0.0-4.0","time_elapsed":98459,"trial_index":13,"trial_type":"instructions","rt":12172,"view_history":"[{\"page_index\":0,\"viewing_time\":12171}]"},{"questionScores":[2416,2400,20,22,25,4,2407,22,2404,2409],"questionIndicies":[33,38,7,12,2,25,15,37,19,48],"judgmentIndicies":[0,1],"internal_node_id":"0.0-5.0","time_elapsed":128175,"trial_index":14,"trial_type":"survey-multi-choose","responses":"{\"Q0\":\"Reveal Answer\",\"Q1\":\"Keep Hidden\",\"Q2\":\"Keep Hidden\",\"Q3\":\"Keep Hidden\",\"Q4\":\"Reveal Answer\",\"Q5\":\"Reveal Answer\",\"Q6\":\"Keep Hidden\",\"Q7\":\"Keep Hidden\",\"Q8\":\"Reveal Answer\",\"Q9\":\"Reveal Answer\"}","rt":28661},{"questionScores":[2416,2400,20,22,25,4,2407,22,2404,2409],"questionIndicies":[33,38,7,12,2,25,15,37,19,48],"judgmentIndicies":[0,1],"internal_node_id":"0.0-6.0","time_elapsed":162640,"trial_index":15,"trial_type":"instructions","rt":33433,"view_history":"[{\"page_index\":0,\"viewing_time\":33432}]"}],"__v":0}
{"_id":{"$oid":"5a6b8e9ad960b6000480c5ac"},"data":[{"questionScores":[2395,25,32,17,2424,37,2404,2411,2424,25],"questionIndicies":[36,6,30,5,33,45,38,31,48,25],"judgmentIndicies":[1,0],"internal_node_id":"0.0-0.0","time_elapsed":5362,"trial_index":0,"trial_type":"survey-multi-choice","responses":"{\"Q0\":\"I consent to participate\"}","rt":5352},{"questionScores":[2395,25,32,17,2424,37,2404,2411,2424,25],"questionIndicies":[36,6,30,5,33,45,38,31,48,25],"judgmentIndicies":[1,0],"internal_node_id":"0.0-1.0","time_elapsed":8241,"trial_index":1,"trial_type":"instructions","rt":1878,"view_history":"[{\"page_index\":0,\"viewing_time\":1877}]"},{"questionScores":[2395,25,32,17,2424,37,2404,2411,2424,25],"questionIndicies":[36,6,30,5,33,45,38,31,48,25],"judgmentIndicies":[1,0],"internal_node_id":"0.0-2.0","time_elapsed":31643,"trial_index":2,"trial_type":"instructions","rt":22402,"view_history":"[{\"page_index\":0,\"viewing_time\":22401}]"},{"questionScores":[2395,25,32,17,2424,37,2404,2411,2424,25],"questionIndicies":[36,6,30,5,33,45,38,31,48,25],"judgmentIndicies":[1,0],"internal_node_id":"0.0-3.0-0.0","time_elapsed":45942,"trial_index":3,"trial_type":"survey-likert","responses":"{\"Q0\":\"2\",\"Q1\":\"0\"}","rt":13296},{"questionScores":[2395,25,32,17,2424,37,2404,2411,2424,25],"questionIndicies":[36,6,30,5,33,45,38,31,48,25],"judgmentIndicies":[1,0],"internal_node_id":"0.0-3.0-1.0","time_elapsed":53873,"trial_index":4,"trial_type":"survey-likert","responses":"{\"Q0\":\"0\",\"Q1\":\"0\"}","rt":6927},{"questionScores":[2395,25,32,17,2424,37,2404,2411,2424,25],"questionIndicies":[36,6,30,5,33,45,38,31,48,25],"judgmentIndicies":[1,0],"internal_node_id":"0.0-3.0-2.0","time_elapsed":58631,"trial_index":5,"trial_type":"survey-likert","responses":"{\"Q0\":\"0\",\"Q1\":\"0\"}","rt":3756},{"questionScores":[2395,25,32,17,2424,37,2404,2411,2424,25],"questionIndicies":[36,6,30,5,33,45,38,31,48,25],"judgmentIndicies":[1,0],"internal_node_id":"0.0-3.0-3.0","time_elapsed":63537,"trial_index":6,"trial_type":"survey-likert","responses":"{\"Q0\":\"0\",\"Q1\":\"0\"}","rt":3902},{"questionScores":[2395,25,32,17,2424,37,2404,2411,2424,25],"questionIndicies":[36,6,30,5,33,45,38,31,48,25],"judgmentIndicies":[1,0],"internal_node_id":"0.0-3.0-4.0","time_elapsed":70750,"trial_index":7,"trial_type":"survey-likert","responses":"{\"Q0\":\"3\",\"Q1\":\"2\"}","rt":6210},{"questionScores":[2395,25,32,17,2424,37,2404,2411,2424,25],"questionIndicies":[36,6,30,5,33,45,38,31,48,25],"judgmentIndicies":[1,0],"internal_node_id":"0.0-3.0-5.0","time_elapsed":76013,"trial_index":8,"trial_type":"survey-likert","responses":"{\"Q0\":\"0\",\"Q1\":\"0\"}","rt":4261},{"questionScores":[2395,25,32,17,2424,37,2404,2411,2424,25],"questionIndicies":[36,6,30,5,33,45,38,31,48,25],"judgmentIndicies":[1,0],"internal_node_id":"0.0-3.0-6.0","time_elapsed":85589,"trial_index":9,"trial_type":"survey-likert","responses":"{\"Q0\":\"4\",\"Q1\":\"4\"}","rt":8573},{"questionScores":[2395,25,32,17,2424,37,2404,2411,2424,25],"questionIndicies":[36,6,30,5,33,45,38,31,48,25],"judgmentIndicies":[1,0],"internal_node_id":"0.0-3.0-7.0","time_elapsed":92844,"trial_index":10,"trial_type":"survey-likert","responses":"{\"Q0\":\"4\",\"Q1\":\"3\"}","rt":6254},{"questionScores":[2395,25,32,17,2424,37,2404,2411,2424,25],"questionIndicies":[36,6,30,5,33,45,38,31,48,25],"judgmentIndicies":[1,0],"internal_node_id":"0.0-3.0-8.0","time_elapsed":100146,"trial_index":11,"trial_type":"survey-likert","responses":"{\"Q0\":\"3\",\"Q1\":\"0\"}","rt":6300},{"questionScores":[2395,25,32,17,2424,37,2404,2411,2424,25],"questionIndicies":[36,6,30,5,33,45,38,31,48,25],"judgmentIndicies":[1,0],"internal_node_id":"0.0-3.0-9.0","time_elapsed":111318,"trial_index":12,"trial_type":"survey-likert","responses":"{\"Q0\":\"2\",\"Q1\":\"0\"}","rt":10170},{"questionScores":[2395,25,32,17,2424,37,2404,2411,2424,25],"questionIndicies":[36,6,30,5,33,45,38,31,48,25],"judgmentIndicies":[1,0],"internal_node_id":"0.0-4.0","time_elapsed":121005,"trial_index":13,"trial_type":"instructions","rt":8686,"view_history":"[{\"page_index\":0,\"viewing_time\":8684}]"},{"questionScores":[2395,25,32,17,2424,37,2404,2411,2424,25],"questionIndicies":[36,6,30,5,33,45,38,31,48,25],"judgmentIndicies":[1,0],"internal_node_id":"0.0-5.0","time_elapsed":170136,"trial_index":14,"trial_type":"survey-multi-choose","responses":"{\"Q0\":\"Reveal Answer\",\"Q1\":\"Keep Hidden\",\"Q2\":\"Keep Hidden\",\"Q3\":\"Keep Hidden\",\"Q4\":\"Reveal Answer\",\"Q5\":\"Keep Hidden\",\"Q6\":\"Reveal Answer\",\"Q7\":\"Reveal Answer\",\"Q8\":\"Keep Hidden\",\"Q9\":\"Reveal Answer\"}","rt":48121},{"questionScores":[2395,25,32,17,2424,37,2404,2411,2424,25],"questionIndicies":[36,6,30,5,33,45,38,31,48,25],"judgmentIndicies":[1,0],"internal_node_id":"0.0-6.0","time_elapsed":191015,"trial_index":15,"trial_type":"instructions","rt":19875,"view_history":"[{\"page_index\":0,\"viewing_time\":19875}]"}],"__v":0}
{"_id":{"$oid":"5a6b8e9ad960b6000480c5ad"},"data":[{"questionScores":[2385,9,9,17,10,2388,2398,2411,36,2384],"questionIndicies":[45,24,39,13,12,2,23,7,48,25],"judgmentIndicies":[1,0],"internal_node_id":"0.0-0.0","time_elapsed":4677,"trial_index":0,"trial_type":"survey-multi-choice","responses":"{\"Q0\":\"I consent to participate\"}","rt":4662},{"questionScores":[2385,9,9,17,10,2388,2398,2411,36,2384],"questionIndicies":[45,24,39,13,12,2,23,7,48,25],"judgmentIndicies":[1,0],"internal_node_id":"0.0-1.0","time_elapsed":6784,"trial_index":1,"trial_type":"instructions","rt":1105,"view_history":"[{\"page_index\":0,\"viewing_time\":1104}]"},{"questionScores":[2385,9,9,17,10,2388,2398,2411,36,2384],"questionIndicies":[45,24,39,13,12,2,23,7,48,25],"judgmentIndicies":[1,0],"internal_node_id":"0.0-2.0","time_elapsed":13995,"trial_index":2,"trial_type":"instructions","rt":6209,"view_history":"[{\"page_index\":0,\"viewing_time\":6208}]"},{"questionScores":[2385,9,9,17,10,2388,2398,2411,36,2384],"questionIndicies":[45,24,39,13,12,2,23,7,48,25],"judgmentIndicies":[1,0],"internal_node_id":"0.0-3.0-0.0","time_elapsed":23665,"trial_index":3,"trial_type":"survey-likert","responses":"{\"Q0\":\"1\",\"Q1\":\"0\"}","rt":8660},{"questionScores":[2385,9,9,17,10,2388,2398,2411,36,2384],"questionIndicies":[45,24,39,13,12,2,23,7,48,25],"judgmentIndicies":[1,0],"internal_node_id":"0.0-3.0-1.0","time_elapsed":28589,"trial_index":4,"trial_type":"survey-likert","responses":"{\"Q0\":\"2\",\"Q1\":\"1\"}","rt":3918},{"questionScores":[2385,9,9,17,10,2388,2398,2411,36,2384],"questionIndicies":[45,24,39,13,12,2,23,7,48,25],"judgmentIndicies":[1,0],"internal_node_id":"0.0-3.0-2.0","time_elapsed":32738,"trial_index":5,"trial_type":"survey-likert","responses":"{\"Q0\":\"4\",\"Q1\":\"4\"}","rt":3144},{"questionScores":[2385,9,9,17,10,2388,2398,2411,36,2384],"questionIndicies":[45,24,39,13,12,2,23,7,48,25],"judgmentIndicies":[1,0],"internal_node_id":"0.0-3.0-3.0","time_elapsed":36732,"trial_index":6,"trial_type":"survey-likert","responses":"{\"Q0\":\"4\",\"Q1\":\"3\"}","rt":2989},{"questionScores":[2385,9,9,17,10,2388,2398,2411,36,2384],"questionIndicies":[45,24,39,13,12,2,23,7,48,25],"judgmentIndicies":[1,0],"internal_node_id":"0.0-3.0-4.0","time_elapsed":40356,"trial_index":7,"trial_type":"survey-likert","responses":"{\"Q0\":\"1\",\"Q1\":\"0\"}","rt":2617},{"questionScores":[2385,9,9,17,10,2388,2398,2411,36,2384],"questionIndicies":[45,24,39,13,12,2,23,7,48,25],"judgmentIndicies":[1,0],"internal_node_id":"0.0-3.0-5.0","time_elapsed":44620,"trial_index":8,"trial_type":"survey-likert","responses":"{\"Q0\":\"5\",\"Q1\":\"4\"}","rt":3258},{"questionScores":[2385,9,9,17,10,2388,2398,2411,36,2384],"questionIndicies":[45,24,39,13,12,2,23,7,48,25],"judgmentIndicies":[1,0],"internal_node_id":"0.0-3.0-6.0","time_elapsed":48987,"trial_index":9,"trial_type":"survey-likert","responses":"{\"Q0\":\"1\",\"Q1\":\"0\"}","rt":3362},{"questionScores":[2385,9,9,17,10,2388,2398,2411,36,2384],"questionIndicies":[45,24,39,13,12,2,23,7,48,25],"judgmentIndicies":[1,0],"internal_node_id":"0.0-3.0-7.0","time_elapsed":52731,"trial_index":10,"trial_type":"survey-likert","responses":"{\"Q0\":\"0\",\"Q1\":\"0\"}","rt":2738},{"questionScores":[2385,9,9,17,10,2388,2398,2411,36,2384],"questionIndicies":[45,24,39,13,12,2,23,7,48,25],"judgmentIndicies":[1,0],"internal_node_id":"0.0-3.0-8.0","time_elapsed":56315,"trial_index":11,"trial_type":"survey-likert","responses":"{\"Q0\":\"2\",\"Q1\":\"0\"}","rt":2578},{"questionScores":[2385,9,9,17,10,2388,2398,2411,36,2384],"questionIndicies":[45,24,39,13,12,2,23,7,48,25],"judgmentIndicies":[1,0],"internal_node_id":"0.0-3.0-9.0","time_elapsed":60887,"trial_index":12,"trial_type":"survey-likert","responses":"{\"Q0\":\"5\",\"Q1\":\"4\"}","rt":3565},{"questionScores":[2385,9,9,17,10,2388,2398,2411,36,2384],"questionIndicies":[45,24,39,13,12,2,23,7,48,25],"judgmentIndicies":[1,0],"internal_node_id":"0.0-4.0","time_elapsed":64172,"trial_index":13,"trial_type":"instructions","rt":2284,"view_history":"[{\"page_index\":0,\"viewing_time\":2283}]"},{"questionScores":[2385,9,9,17,10,2388,2398,2411,36,2384],"questionIndicies":[45,24,39,13,12,2,23,7,48,25],"judgmentIndicies":[1,0],"internal_node_id":"0.0-5.0","time_elapsed":89599,"trial_index":14,"trial_type":"survey-multi-choose","responses":"{\"Q0\":\"Keep Hidden\",\"Q1\":\"Reveal Answer\",\"Q2\":\"Reveal Answer\",\"Q3\":\"Keep Hidden\",\"Q4\":\"Keep Hidden\",\"Q5\":\"Reveal Answer\",\"Q6\":\"Keep Hidden\",\"Q7\":\"Keep Hidden\",\"Q8\":\"Reveal Answer\",\"Q9\":\"Reveal Answer\"}","rt":24398},{"questionScores":[2385,9,9,17,10,2388,2398,2411,36,2384],"questionIndicies":[45,24,39,13,12,2,23,7,48,25],"judgmentIndicies":[1,0],"internal_node_id":"0.0-6.0","time_elapsed":94755,"trial_index":15,"trial_type":"instructions","rt":4140,"view_history":"[{\"page_index\":0,\"viewing_time\":4139}]"}],"__v":0}
