{"_id":{"$oid":"5c8ff0bd201ca70004c2bc4a"},"data":[{"participantID":"c3l44ptjm8gwybzu7l50glec089buutn","judgmentIndices":[1,0,3,2],"questionScores":[25,null,2412,null,33,22,null,2414,null,27,2418,2404],"questionIndices":[20,18,1,15,40,26,29,16,32,5,13,14],"responseType":"finish","internal_node_id":"0.0-0.0","time_elapsed":4687,"trial_index":0,"trial_type":"survey-multi-choice","responses":"{\"Q0\":\"I consent to participate\"}","rt":4664},{"participantID":"c3l44ptjm8gwybzu7l50glec089buutn","judgmentIndices":[1,0,3,2],"questionScores":[25,null,2412,null,33,22,null,2414,null,27,2418,2404],"questionIndices":[20,18,1,15,40,26,29,16,32,5,13,14],"responseType":"finish","internal_node_id":"0.0-1.0","time_elapsed":8796,"trial_index":1,"trial_type":"instructions","rt":3107,"view_history":"[{\"page_index\":0,\"viewing_time\":3105}]"},{"participantID":"c3l44ptjm8gwybzu7l50glec089buutn","judgmentIndices":[1,0,3,2],"questionScores":[25,null,2412,null,33,22,null,2414,null,27,2418,2404],"questionIndices":[20,18,1,15,40,26,29,16,32,5,13,14],"responseType":"finish","internal_node_id":"0.0-2.0-0.0","time_elapsed":35626,"trial_index":2,"trial_type":"survey-likert","responses":"{\"Q0\":\"4\",\"Q1\":\"4\",\"Q2\":\"3\",\"Q3\":\"5\"}","rt":25819},{"participantID":"c3l44ptjm8gwybzu7l50glec089buutn","judgmentIndices":[1,0,3,2],"questionScores":[25,null,2412,null,33,22,null,2414,null,27,2418,2404],"questionIndices":[20,18,1,15,40,26,29,16,32,5,13,14],"responseType":"finish","internal_node_id":"0.0-2.0-1.0","time_elapsed":47775,"trial_index":3,"trial_type":"survey-likert","responses":"{\"Q0\":\"3\",\"Q1\":\"4\",\"Q2\":\"2\",\"Q3\":\"4\"}","rt":11143},{"participantID":"c3l44ptjm8gwybzu7l50glec089buutn","judgmentIndices":[1,0,3,2],"questionScores":[25,null,2412,null,33,22,null,2414,null,27,2418,2404],"questionIndices":[20,18,1,15,40,26,29,16,32,5,13,14],"responseType":"finish","internal_node_id":"0.0-2.0-2.0","time_elapsed":58004,"trial_index":4,"trial_type":"survey-likert","responses":"{\"Q0\":\"5\",\"Q1\":\"4\",\"Q2\":\"5\",\"Q3\":\"2\"}","rt":9213},{"participantID":"c3l44ptjm8gwybzu7l50glec089buutn","judgmentIndices":[1,0,3,2],"questionScores":[25,null,2412,null,33,22,null,2414,null,27,2418,2404],"questionIndices":[20,18,1,15,40,26,29,16,32,5,13,14],"responseType":"finish","internal_node_id":"0.0-2.0-3.0","time_elapsed":69183,"trial_index":5,"trial_type":"survey-likert","responses":"{\"Q0\":\"3\",\"Q1\":\"2\",\"Q2\":\"4\",\"Q3\":\"3\"}","rt":10170},{"participantID":"c3l44ptjm8gwybzu7l50glec089buutn","judgmentIndices":[1,0,3,2],"questionScores":[25,null,2412,null,33,22,null,2414,null,27,2418,2404],"questionIndices":[20,18,1,15,40,26,29,16,32,5,13,14],"responseType":"finish","internal_node_id":"0.0-2.0-4.0","time_elapsed":76947,"trial_index":6,"trial_type":"survey-likert","responses":"{\"Q0\":\"3\",\"Q1\":\"2\",\"Q2\":\"5\",\"Q3\":\"4\"}","rt":6752},{"participantID":"c3l44ptjm8gwybzu7l50glec089buutn","judgmentIndices":[1,0,3,2],"questionScores":[25,null,2412,null,33,22,null,2414,null,27,2418,2404],"questionIndices":[20,18,1,15,40,26,29,16,32,5,13,14],"responseType":"finish","internal_node_id":"0.0-2.0-5.0","time_elapsed":84331,"trial_index":7,"trial_type":"survey-likert","responses":"{\"Q0\":\"3\",\"Q1\":\"2\",\"Q2\":\"5\",\"Q3\":\"4\"}","rt":6375},{"participantID":"c3l44ptjm8gwybzu7l50glec089buutn","judgmentIndices":[1,0,3,2],"questionScores":[25,null,2412,null,33,22,null,2414,null,27,2418,2404],"questionIndices":[20,18,1,15,40,26,29,16,32,5,13,14],"responseType":"finish","internal_node_id":"0.0-3.0","time_elapsed":100184,"trial_index":8,"trial_type":"survey-likert","responses":"{\"Q0\":\"3\",\"Q1\":\"3\",\"Q2\":\"5\",\"Q3\":\"3\",\"Q4\":\"6\"}","rt":14841},{"participantID":"c3l44ptjm8gwybzu7l50glec089buutn","judgmentIndices":[1,0,3,2],"questionScores":[25,null,2412,null,33,22,null,2414,null,27,2418,2404],"questionIndices":[20,18,1,15,40,26,29,16,32,5,13,14],"responseType":"finish","internal_node_id":"0.0-4.0-0.0","time_elapsed":110187,"trial_index":9,"trial_type":"survey-likert","responses":"{\"Q0\":\"3\",\"Q1\":\"5\",\"Q2\":\"4\",\"Q3\":\"3\"}","rt":8457},{"participantID":"c3l44ptjm8gwybzu7l50glec089buutn","judgmentIndices":[1,0,3,2],"questionScores":[25,null,2412,null,33,22,null,2414,null,27,2418,2404],"questionIndices":[20,18,1,15,40,26,29,16,32,5,13,14],"responseType":"finish","internal_node_id":"0.0-4.0-1.0","time_elapsed":118860,"trial_index":10,"trial_type":"survey-likert","responses":"{\"Q0\":\"4\",\"Q1\":\"3\",\"Q2\":\"5\",\"Q3\":\"3\"}","rt":7661},{"participantID":"c3l44ptjm8gwybzu7l50glec089buutn","judgmentIndices":[1,0,3,2],"questionScores":[25,null,2412,null,33,22,null,2414,null,27,2418,2404],"questionIndices":[20,18,1,15,40,26,29,16,32,5,13,14],"responseType":"finish","internal_node_id":"0.0-4.0-2.0","time_elapsed":129375,"trial_index":11,"trial_type":"survey-likert","responses":"{\"Q0\":\"4\",\"Q1\":\"3\",\"Q2\":\"5\",\"Q3\":\"4\"}","rt":9509},{"participantID":"c3l44ptjm8gwybzu7l50glec089buutn","judgmentIndices":[1,0,3,2],"questionScores":[25,null,2412,null,33,22,null,2414,null,27,2418,2404],"questionIndices":[20,18,1,15,40,26,29,16,32,5,13,14],"responseType":"finish","internal_node_id":"0.0-4.0-3.0","time_elapsed":137011,"trial_index":12,"trial_type":"survey-likert","responses":"{\"Q0\":\"4\",\"Q1\":\"3\",\"Q2\":\"6\",\"Q3\":\"4\"}","rt":6624},{"participantID":"c3l44ptjm8gwybzu7l50glec089buutn","judgmentIndices":[1,0,3,2],"questionScores":[25,null,2412,null,33,22,null,2414,null,27,2418,2404],"questionIndices":[20,18,1,15,40,26,29,16,32,5,13,14],"responseType":"finish","internal_node_id":"0.0-4.0-4.0","time_elapsed":148314,"trial_index":13,"trial_type":"survey-likert","responses":"{\"Q0\":\"3\",\"Q1\":\"4\",\"Q2\":\"3\",\"Q3\":\"5\"}","rt":10295}],"__v":0}
{"_id":{"$oid":"5c8ff0e0201ca70004c2bc4b"},"data":[{"participantID":"ssbqs437srxmda94319o8dj70afva4zo","judgmentIndices":[2,3,0,1],"questionScores":[null,2410,33,18,null,38,2,2405,null,2396,null,2404],"questionIndices":[35,46,22,34,8,41,30,20,5,11,45,38],"responseType":"finish","internal_node_id":"0.0-0.0","time_elapsed":3271,"trial_index":0,"trial_type":"survey-multi-choice","responses":"{\"Q0\":\"I consent to participate\"}","rt":3260},{"participantID":"ssbqs437srxmda94319o8dj70afva4zo","judgmentIndices":[2,3,0,1],"questionScores":[null,2410,33,18,null,38,2,2405,null,2396,null,2404],"questionIndices":[35,46,22,34,8,41,30,20,5,11,45,38],"responseType":"finish","internal_node_id":"0.0-1.0","time_elapsed":12014,"trial_index":1,"trial_type":"instructions","rt":7742,"view_history":"[{\"page_index\":0,\"viewing_time\":7742}]"},{"participantID":"ssbqs437srxmda94319o8dj70afva4zo","judgmentIndices":[2,3,0,1],"questionScores":[null,2410,33,18,null,38,2,2405,null,2396,null,2404],"questionIndices":[35,46,22,34,8,41,30,20,5,11,45,38],"responseType":"finish","internal_node_id":"0.0-2.0-0.0","time_elapsed":22327,"trial_index":2,"trial_type":"survey-likert","responses":"{\"Q0\":\"4\",\"Q1\":\"2\",\"Q2\":\"4\",\"Q3\":\"1\"}","rt":9307},{"participantID":"ssbqs437srxmda94319o8dj70afva4zo","judgmentIndices":[2,3,0,1],"questionScores":[null,2410,33,18,null,38,2,2405,null,2396,null,2404],"questionIndices":[35,46,22,34,8,41,30,20,5,11,45,38],"responseType":"finish","internal_node_id":"0.0-2.0-1.0","time_elapsed":31069,"trial_index":3,"trial_type":"survey-likert","responses":"{\"Q0\":\"3\",\"Q1\":\"2\",\"Q2\":\"5\",\"Q3\":\"0\"}","rt":7739},{"participantID":"ssbqs437srxmda94319o8dj70afva4zo","judgmentIndices":[2,3,0,1],"questionScores":[null,2410,33,18,null,38,2,2405,null,2396,null,2404],"questionIndices":[35,46,22,34,8,41,30,20,5,11,45,38],"responseType":"finish","internal_node_id":"0.0-2.0-2.0","time_elapsed":44526,"trial_index":4,"trial_type":"survey-likert","responses":"{\"Q0\":\"3\",\"Q1\":\"2\",\"Q2\":\"5\",\"Q3\":\"2\"}","rt":12453},{"participantID":"ssbqs437srxmda94319o8dj70afva4zo","judgmentIndices":[2,3,0,1],"questionScores":[null,2410,33,18,null,38,2,2405,null,2396,null,2404],"questionIndices":[35,46,22,34,8,41,30,20,5,11,45,38],"responseType":"finish","internal_node_id":"0.0-2.0-3.0","time_elapsed":55838,"trial_index":5,"trial_type":"survey-likert","responses":"{\"Q0\":\"4\",\"Q1\":\"3\",\"Q2\":\"3\",\"Q3\":\"2\"}","rt":10308},{"participantID":"ssbqs437srxmda94319o8dj70afva4zo","judgmentIndices":[2,3,0,1],"questionScores":[null,2410,33,18,null,38,2,2405,null,2396,null,2404],"questionIndices":[35,46,22,34,8,41,30,20,5,11,45,38],"responseType":"finish","internal_node_id":"0.0-2.0-4.0","time_elapsed":67958,"trial_index":6,"trial_type":"survey-likert","responses":"{\"Q0\":\"3\",\"Q1\":\"2\",\"Q2\":\"5\",\"Q3\":\"1\"}","rt":11116},{"participantID":"ssbqs437srxmda94319o8dj70afva4zo","judgmentIndices":[2,3,0,1],"questionScores":[null,2410,33,18,null,38,2,2405,null,2396,null,2404],"questionIndices":[35,46,22,34,8,41,30,20,5,11,45,38],"responseType":"finish","internal_node_id":"0.0-2.0-5.0","time_elapsed":79742,"trial_index":7,"trial_type":"survey-likert","responses":"{\"Q0\":\"3\",\"Q1\":\"3\",\"Q2\":\"1\",\"Q3\":\"4\"}","rt":10779},{"participantID":"ssbqs437srxmda94319o8dj70afva4zo","judgmentIndices":[2,3,0,1],"questionScores":[null,2410,33,18,null,38,2,2405,null,2396,null,2404],"questionIndices":[35,46,22,34,8,41,30,20,5,11,45,38],"responseType":"finish","internal_node_id":"0.0-3.0","time_elapsed":93727,"trial_index":8,"trial_type":"survey-likert","responses":"{\"Q0\":\"3\",\"Q1\":\"2\",\"Q2\":\"5\",\"Q3\":\"1\",\"Q4\":\"6\"}","rt":12980},{"participantID":"ssbqs437srxmda94319o8dj70afva4zo","judgmentIndices":[2,3,0,1],"questionScores":[null,2410,33,18,null,38,2,2405,null,2396,null,2404],"questionIndices":[35,46,22,34,8,41,30,20,5,11,45,38],"responseType":"finish","internal_node_id":"0.0-4.0-0.0","time_elapsed":105453,"trial_index":9,"trial_type":"survey-likert","responses":"{\"Q0\":\"3\",\"Q1\":\"2\",\"Q2\":\"4\",\"Q3\":\"2\"}","rt":10724},{"participantID":"ssbqs437srxmda94319o8dj70afva4zo","judgmentIndices":[2,3,0,1],"questionScores":[null,2410,33,18,null,38,2,2405,null,2396,null,2404],"questionIndices":[35,46,22,34,8,41,30,20,5,11,45,38],"responseType":"finish","internal_node_id":"0.0-4.0-1.0","time_elapsed":114173,"trial_index":10,"trial_type":"survey-likert","responses":"{\"Q0\":\"2\",\"Q1\":\"1\",\"Q2\":\"3\",\"Q3\":\"2\"}","rt":7715},{"participantID":"ssbqs437srxmda94319o8dj70afva4zo","judgmentIndices":[2,3,0,1],"questionScores":[null,2410,33,18,null,38,2,2405,null,2396,null,2404],"questionIndices":[35,46,22,34,8,41,30,20,5,11,45,38],"responseType":"finish","internal_node_id":"0.0-4.0-2.0","time_elapsed":123293,"trial_index":11,"trial_type":"survey-likert","responses":"{\"Q0\":\"2\",\"Q1\":\"2\",\"Q2\":\"1\",\"Q3\":\"3\"}","rt":8116},{"participantID":"ssbqs437srxmda94319o8dj70afva4zo","judgmentIndices":[2,3,0,1],"questionScores":[null,2410,33,18,null,38,2,2405,null,2396,null,2404],"questionIndices":[35,46,22,34,8,41,30,20,5,11,45,38],"responseType":"finish","internal_node_id":"0.0-4.0-3.0","time_elapsed":133565,"trial_index":12,"trial_type":"survey-likert","responses":"{\"Q0\":\"2\",\"Q1\":\"3\",\"Q2\":\"4\",\"Q3\":\"2\"}","rt":9267},{"participantID":"ssbqs437srxmda94319o8dj70afva4zo","judgmentIndices":[2,3,0,1],"questionScores":[null,2410,33,18,null,38,2,2405,null,2396,null,2404],"questionIndices":[35,46,22,34,8,41,30,20,5,11,45,38],"responseType":"finish","internal_node_id":"0.0-4.0-4.0","time_elapsed":143077,"trial_index":13,"trial_type":"survey-likert","responses":"{\"Q0\":\"2\",\"Q1\":\"2\",\"Q2\":\"4\",\"Q3\":\"2\"}","rt":8507}],"__v":0}
{"_id":{"$oid":"5c8ff0f8201ca70004c2bc4c"},"data":[{"participantID":"lrrjk5ftnpf2hhab51ztzrafocpt0ah3","judgmentIndices":[0,2,3,1],"questionScores":[null,null,2405,2405,14,48,2409,2385,29,null,null,12],"questionIndices":[18,34,3,36,37,7,19,17,1,26,27,30],"responseType":"finish","internal_node_id":"0.0-0.0","time_elapsed":4530,"trial_index":0,"trial_type":"survey-multi-choice","responses":"{\"Q0\":\"I consent to participate\"}","rt":4517},{"participantID":"lrrjk5ftnpf2hhab51ztzrafocpt0ah3","judgmentIndices":[0,2,3,1],"questionScores":[null,null,2405,2405,14,48,2409,2385,29,null,null,12],"questionIndices":[18,34,3,36,37,7,19,17,1,26,27,30],"responseType":"finish","internal_node_id":"0.0-1.0","time_elapsed":31214,"trial_index":1,"trial_type":"instructions","rt":25683,"view_history":"[{\"page_index\":0,\"viewing_time\":25682}]"},{"participantID":"lrrjk5ftnpf2hhab51ztzrafocpt0ah3","judgmentIndices":[0,2,3,1],"questionScores":[null,null,2405,2405,14,48,2409,2385,29,null,null,12],"questionIndices":[18,34,3,36,37,7,19,17,1,26,27,30],"responseType":"finish","internal_node_id":"0.0-2.0-0.0","time_elapsed":50389,"trial_index":2,"trial_type":"survey-likert","responses":"{\"Q0\":\"3\",\"Q1\":\"2\",\"Q2\":\"1\",\"Q3\":\"2\"}","rt":18164},{"participantID":"lrrjk5ftnpf2hhab51ztzrafocpt0ah3","judgmentIndices":[0,2,3,1],"questionScores":[null,null,2405,2405,14,48,2409,2385,29,null,null,12],"questionIndices":[18,34,3,36,37,7,19,17,1,26,27,30],"responseType":"finish","internal_node_id":"0.0-2.0-1.0","time_elapsed":69527,"trial_index":3,"trial_type":"survey-likert","responses":"{\"Q0\":\"2\",\"Q1\":\"3\",\"Q2\":\"1\",\"Q3\":\"2\"}","rt":18134},{"participantID":"lrrjk5ftnpf2hhab51ztzrafocpt0ah3","judgmentIndices":[0,2,3,1],"questionScores":[null,null,2405,2405,14,48,2409,2385,29,null,null,12],"questionIndices":[18,34,3,36,37,7,19,17,1,26,27,30],"responseType":"finish","internal_node_id":"0.0-2.0-2.0","time_elapsed":91498,"trial_index":4,"trial_type":"survey-likert","responses":"{\"Q0\":\"4\",\"Q1\":\"3\",\"Q2\":\"3\",\"Q3\":\"1\"}","rt":20962},{"participantID":"lrrjk5ftnpf2hhab51ztzrafocpt0ah3","judgmentIndices":[0,2,3,1],"questionScores":[null,null,2405,2405,14,48,2409,2385,29,null,null,12],"questionIndices":[18,34,3,36,37,7,19,17,1,26,27,30],"responseType":"finish","internal_node_id":"0.0-2.0-3.0","time_elapsed":109191,"trial_index":5,"trial_type":"survey-likert","responses":"{\"Q0\":\"4\",\"Q1\":\"1\",\"Q2\":\"1\",\"Q3\":\"1\"}","rt":16687},{"participantID":"lrrjk5ftnpf2hhab51ztzrafocpt0ah3","judgmentIndices":[0,2,3,1],"questionScores":[null,null,2405,2405,14,48,2409,2385,29,null,null,12],"questionIndices":[18,34,3,36,37,7,19,17,1,26,27,30],"responseType":"finish","internal_node_id":"0.0-2.0-4.0","time_elapsed":117960,"trial_index":6,"trial_type":"survey-likert","responses":"{\"Q0\":\"5\",\"Q1\":\"5\",\"Q2\":\"4\",\"Q3\":\"1\"}","rt":7763},{"participantID":"lrrjk5ftnpf2hhab51ztzrafocpt0ah3","judgmentIndices":[0,2,3,1],"questionScores":[null,null,2405,2405,14,48,2409,2385,29,null,null,12],"questionIndices":[18,34,3,36,37,7,19,17,1,26,27,30],"responseType":"finish","internal_node_id":"0.0-2.0-5.0","time_elapsed":126752,"trial_index":7,"trial_type":"survey-likert","responses":"{\"Q0\":\"2\",\"Q1\":\"1\",\"Q2\":\"1\",\"Q3\":\"0\"}","rt":7787},{"participantID":"lrrjk5ftnpf2hhab51ztzrafocpt0ah3","judgmentIndices":[0,2,3,1],"questionScores":[null,null,2405,2405,14,48,2409,2385,29,null,null,12],"questionIndices":[18,34,3,36,37,7,19,17,1,26,27,30],"responseType":"finish","internal_node_id":"0.0-3.0","time_elapsed":139577,"trial_index":8,"trial_type":"survey-likert","responses":"{\"Q0\":\"3\",\"Q1\":\"1\",\"Q2\":\"1\",\"Q3\":\"0\",\"Q4\":\"6\"}","rt":11819},{"participantID":"lrrjk5ftnpf2hhab51ztzrafocpt0ah3","judgmentIndices":[0,2,3,1],"questionScores":[null,null,2405,2405,14,48,2409,2385,29,null,null,12],"questionIndices":[18,34,3,36,37,7,19,17,1,26,27,30],"responseType":"finish","internal_node_id":"0.0-4.0-0.0","time_elapsed":150336,"trial_index":9,"trial_type":"survey-likert","responses":"{\"Q0\":\"4\",\"Q1\":\"3\",\"Q2\":\"3\",\"Q3\":\"2\"}","rt":9755},{"participantID":"lrrjk5ftnpf2hhab51ztzrafocpt0ah3","judgmentIndices":[0,2,3,1],"questionScores":[null,null,2405,2405,14,48,2409,2385,29,null,null,12],"questionIndices":[18,34,3,36,37,7,19,17,1,26,27,30],"responseType":"finish","internal_node_id":"0.0-4.0-1.0","time_elapsed":160423,"trial_index":10,"trial_type":"survey-likert","responses":"{\"Q0\":\"2\",\"Q1\":\"1\",\"Q2\":\"1\",\"Q3\":\"1\"}","rt":9081},{"participantID":"lrrjk5ftnpf2hhab51ztzrafocpt0ah3","judgmentIndices":[0,2,3,1],"questionScores":[null,null,2405,2405,14,48,2409,2385,29,null,null,12],"questionIndices":[18,34,3,36,37,7,19,17,1,26,27,30],"responseType":"finish","internal_node_id":"0.0-4.0-2.0","time_elapsed":181025,"trial_index":11,"trial_type":"survey-likert","responses":"{\"Q0\":\"2\",\"Q1\":\"1\",\"Q2\":\"1\",\"Q3\":\"0\"}","rt":19598},{"participantID":"lrrjk5ftnpf2hhab51ztzrafocpt0ah3","judgmentIndices":[0,2,3,1],"questionScores":[null,null,2405,2405,14,48,2409,2385,29,null,null,12],"questionIndices":[18,34,3,36,37,7,19,17,1,26,27,30],"responseType":"finish","internal_node_id":"0.0-4.0-3.0","time_elapsed":195574,"trial_index":12,"trial_type":"survey-likert","responses":"{\"Q0\":\"4\",\"Q1\":\"3\",\"Q2\":\"3\",\"Q3\":\"2\"}","rt":13543},{"participantID":"lrrjk5ftnpf2hhab51ztzrafocpt0ah3","judgmentIndices":[0,2,3,1],"questionScores":[null,null,2405,2405,14,48,2409,2385,29,null,null,12],"questionIndices":[18,34,3,36,37,7,19,17,1,26,27,30],"responseType":"finish","internal_node_id":"0.0-4.0-4.0","time_elapsed":206433,"trial_index":13,"trial_type":"survey-likert","responses":"{\"Q0\":\"3\",\"Q1\":\"2\",\"Q2\":\"2\",\"Q3\":\"1\"}","rt":9855}],"__v":0}
{"_id":{"$oid":"5c8ff113201ca70004c2bc4d"},"data":[{"participantID":"zak0ozs6f2cxxeulwryc2puypfsk4coe","judgmentIndices":[1,3,0,2],"questionScores":[null,2434,31,11,31,null,2397,null,5,2412,null,2407],"questionIndices":[45,43,8,26,25,15,28,22,11,27,31,7],"responseType":"finish","internal_node_id":"0.0-0.0","time_elapsed":5264,"trial_index":0,"trial_type":"survey-multi-choice","responses":"{\"Q0\":\"I consent to participate\"}","rt":5258},{"participantID":"zak0ozs6f2cxxeulwryc2puypfsk4coe","judgmentIndices":[1,3,0,2],"questionScores":[null,2434,31,11,31,null,2397,null,5,2412,null,2407],"questionIndices":[45,43,8,26,25,15,28,22,11,27,31,7],"responseType":"finish","internal_node_id":"0.0-1.0","time_elapsed":11098,"trial_index":1,"trial_type":"instructions","rt":4832,"view_history":"[{\"page_index\":0,\"viewing_time\":4832}]"},{"participantID":"zak0ozs6f2cxxeulwryc2puypfsk4coe","judgmentIndices":[1,3,0,2],"questionScores":[null,2434,31,11,31,null,2397,null,5,2412,null,2407],"questionIndices":[45,43,8,26,25,15,28,22,11,27,31,7],"responseType":"finish","internal_node_id":"0.0-2.0-0.0","time_elapsed":31110,"trial_index":2,"trial_type":"survey-likert","responses":"{\"Q0\":\"1\",\"Q1\":\"1\",\"Q2\":\"1\",\"Q3\":\"1\"}","rt":19010},{"participantID":"zak0ozs6f2cxxeulwryc2puypfsk4coe","judgmentIndices":[1,3,0,2],"questionScores":[null,2434,31,11,31,null,2397,null,5,2412,null,2407],"questionIndices":[45,43,8,26,25,15,28,22,11,27,31,7],"responseType":"finish","internal_node_id":"0.0-2.0-1.0","time_elapsed":42196,"trial_index":3,"trial_type":"survey-likert","responses":"{\"Q0\":\"0\",\"Q1\":\"3\",\"Q2\":\"4\",\"Q3\":\"4\"}","rt":10084},{"participantID":"zak0ozs6f2cxxeulwryc2puypfsk4coe","judgmentIndices":[1,3,0,2],"questionScores":[null,2434,31,11,31,null,2397,null,5,2412,null,2407],"questionIndices":[45,43,8,26,25,15,28,22,11,27,31,7],"responseType":"finish","internal_node_id":"0.0-2.0-2.0","time_elapsed":54747,"trial_index":4,"trial_type":"survey-likert","responses":"{\"Q0\":\"2\",\"Q1\":\"1\",\"Q2\":\"1\",\"Q3\":\"1\"}","rt":11549},{"participantID":"zak0ozs6f2cxxeulwryc2puypfsk4coe","judgmentIndices":[1,3,0,2],"questionScores":[null,2434,31,11,31,null,2397,null,5,2412,null,2407],"questionIndices":[45,43,8,26,25,15,28,22,11,27,31,7],"responseType":"finish","internal_node_id":"0.0-2.0-3.0","time_elapsed":63399,"trial_index":5,"trial_type":"survey-likert","responses":"{\"Q0\":\"1\",\"Q1\":\"0\",\"Q2\":\"0\",\"Q3\":\"0\"}","rt":7649},{"participantID":"zak0ozs6f2cxxeulwryc2puypfsk4coe","judgmentIndices":[1,3,0,2],"questionScores":[null,2434,31,11,31,null,2397,null,5,2412,null,2407],"questionIndices":[45,43,8,26,25,15,28,22,11,27,31,7],"responseType":"finish","internal_node_id":"0.0-2.0-4.0","time_elapsed":73459,"trial_index":6,"trial_type":"survey-likert","responses":"{\"Q0\":\"2\",\"Q1\":\"2\",\"Q2\":\"2\",\"Q3\":\"2\"}","rt":9058},{"participantID":"zak0ozs6f2cxxeulwryc2puypfsk4coe","judgmentIndices":[1,3,0,2],"questionScores":[null,2434,31,11,31,null,2397,null,5,2412,null,2407],"questionIndices":[45,43,8,26,25,15,28,22,11,27,31,7],"responseType":"finish","internal_node_id":"0.0-2.0-5.0","time_elapsed":86887,"trial_index":7,"trial_type":"survey-likert","responses":"{\"Q0\":\"1\",\"Q1\":\"0\",\"Q2\":\"0\",\"Q3\":\"0\"}","rt":12426},{"participantID":"zak0ozs6f2cxxeulwryc2puypfsk4coe","judgmentIndices":[1,3,0,2],"questionScores":[null,2434,31,11,31,null,2397,null,5,2412,null,2407],"questionIndices":[45,43,8,26,25,15,28,22,11,27,31,7],"responseType":"finish","internal_node_id":"0.0-3.0","time_elapsed":100977,"trial_index":8,"trial_type":"survey-likert","responses":"{\"Q0\":\"3\",\"Q1\":\"1\",\"Q2\":\"1\",\"Q3\":\"1\",\"Q4\":\"6\"}","rt":13086},{"participantID":"zak0ozs6f2cxxeulwryc2puypfsk4coe","judgmentIndices":[1,3,0,2],"questionScores":[null,2434,31,11,31,null,2397,null,5,2412,null,2407],"questionIndices":[45,43,8,26,25,15,28,22,11,27,31,7],"responseType":"finish","internal_node_id":"0.0-4.0-0.0","time_elapsed":112252,"trial_index":9,"trial_type":"survey-likert","responses":"{\"Q0\":\"1\",\"Q1\":\"2\",\"Q2\":\"3\",\"Q3\":\"3\"}","rt":10271},{"participantID":"zak0ozs6f2cxxeulwryc2puypfsk4coe","judgmentIndices":[1,3,0,2],"questionScores":[null,2434,31,11,31,null,2397,null,5,2412,null,2407],"questionIndices":[45,43,8,26,25,15,28,22,11,27,31,7],"responseType":"finish","internal_node_id":"0.0-4.0-1.0","time_elapsed":125958,"trial_index":10,"trial_type":"survey-likert","responses":"{\"Q0\":\"4\",\"Q1\":\"0\",\"Q2\":\"0\",\"Q3\":\"0\"}","rt":12704},{"participantID":"zak0ozs6f2cxxeulwryc2puypfsk4coe","judgmentIndices":[1,3,0,2],"questionScores":[null,2434,31,11,31,null,2397,null,5,2412,null,2407],"questionIndices":[45,43,8,26,25,15,28,22,11,27,31,7],"responseType":"finish","internal_node_id":"0.0-4.0-2.0","time_elapsed":134234,"trial_index":11,"trial_type":"survey-likert","responses":"{\"Q0\":\"3\",\"Q1\":\"1\",\"Q2\":\"1\",\"Q3\":\"1\"}","rt":7274},{"participantID":"zak0ozs6f2cxxeulwryc2puypfsk4coe","judgmentIndices":[1,3,0,2],"questionScores":[null,2434,31,11,31,null,2397,null,5,2412,null,2407],"questionIndices":[45,43,8,26,25,15,28,22,11,27,31,7],"responseType":"finish","internal_node_id":"0.0-4.0-3.0","time_elapsed":141562,"trial_index":12,"trial_type":"survey-likert","responses":"{\"Q0\":\"1\",\"Q1\":\"0\",\"Q2\":\"0\",\"Q3\":\"0\"}","rt":6324},{"participantID":"zak0ozs6f2cxxeulwryc2puypfsk4coe","judgmentIndices":[1,3,0,2],"questionScores":[null,2434,31,11,31,null,2397,null,5,2412,null,2407],"questionIndices":[45,43,8,26,25,15,28,22,11,27,31,7],"responseType":"finish","internal_node_id":"0.0-4.0-4.0","time_elapsed":146562,"trial_index":13,"trial_type":"survey-likert","responses":"{\"Q0\":\"2\",\"Q1\":\"1\",\"Q2\":\"1\",\"Q3\":\"1\"}","rt":3996}],"__v":0}
{"_id":{"$oid":"5c8ff115201ca70004c2bc4e"},"data":[{"participantID":"pkgqdho721m55cg70rxef9fqkr03pg5q","judgmentIndices":[0,2,3,1],"questionScores":[2417,2421,null,24,null,32,2417,28,2395,22,null,null],"questionIndices":[10,30,43,0,49,7,36,3,13,44,4,25],"responseType":"finish","internal_node_id":"0.0-0.0","time_elapsed":37759,"trial_index":0,"trial_type":"survey-multi-choice","responses":"{\"Q0\":\"I consent to participate\"}","rt":37753},{"participantID":"pkgqdho721m55cg70rxef9fqkr03pg5q","judgmentIndices":[0,2,3,1],"questionScores":[2417,2421,null,24,null,32,2417,28,2395,22,null,null],"questionIndices":[10,30,43,0,49,7,36,3,13,44,4,25],"responseType":"finish","internal_node_id":"0.0-1.0","time_elapsed":55614,"trial_index":1,"trial_type":"instructions","rt":16853,"view_history":"[{\"page_index\":0,\"viewing_time\":16853}]"},{"participantID":"pkgqdho721m55cg70rxef9fqkr03pg5q","judgmentIndices":[0,2,3,1],"questionScores":[2417,2421,null,24,null,32,2417,28,2395,22,null,null],"questionIndices":[10,30,43,0,49,7,36,3,13,44,4,25],"responseType":"finish","internal_node_id":"0.0-2.0-0.0","time_elapsed":71058,"trial_index":2,"trial_type":"survey-likert","responses":"{\"Q0\":\"5\",\"Q1\":\"5\",\"Q2\":\"4\",\"Q3\":\"0\"}","rt":14440},{"participantID":"pkgqdho721m55cg70rxef9fqkr03pg5q","judgmentIndices":[0,2,3,1],"questionScores":[2417,2421,null,24,null,32,2417,28,2395,22,null,null],"questionIndices":[10,30,43,0,49,7,36,3,13,44,4,25],"responseType":"finish","internal_node_id":"0.0-2.0-1.0","time_elapsed":82694,"trial_index":3,"trial_type":"survey-likert","responses":"{\"Q0\":\"6\",\"Q1\":\"6\",\"Q2\":\"4\",\"Q3\":\"0\"}","rt":10633},{"participantID":"pkgqdho721m55cg70rxef9fqkr03pg5q","judgmentIndices":[0,2,3,1],"questionScores":[2417,2421,null,24,null,32,2417,28,2395,22,null,null],"questionIndices":[10,30,43,0,49,7,36,3,13,44,4,25],"responseType":"finish","internal_node_id":"0.0-2.0-2.0","time_elapsed":104622,"trial_index":4,"trial_type":"survey-likert","responses":"{\"Q0\":\"5\",\"Q1\":\"5\",\"Q2\":\"5\",\"Q3\":\"0\"}","rt":20925},{"participantID":"pkgqdho721m55cg70rxef9fqkr03pg5q","judgmentIndices":[0,2,3,1],"questionScores":[2417,2421,null,24,null,32,2417,28,2395,22,null,null],"questionIndices":[10,30,43,0,49,7,36,3,13,44,4,25],"responseType":"finish","internal_node_id":"0.0-2.0-3.0","time_elapsed":117494,"trial_index":5,"trial_type":"survey-likert","responses":"{\"Q0\":\"4\",\"Q1\":\"4\",\"Q2\":\"3\",\"Q3\":\"0\"}","rt":11870},{"participantID":"pkgqdho721m55cg70rxef9fqkr03pg5q","judgmentIndices":[0,2,3,1],"questionScores":[2417,2421,null,24,null,32,2417,28,2395,22,null,null],"questionIndices":[10,30,43,0,49,7,36,3,13,44,4,25],"responseType":"finish","internal_node_id":"0.0-2.0-4.0","time_elapsed":127647,"trial_index":6,"trial_type":"survey-likert","responses":"{\"Q0\":\"5\",\"Q1\":\"5\",\"Q2\":\"3\",\"Q3\":\"0\"}","rt":9150},{"participantID":"pkgqdho721m55cg70rxef9fqkr03pg5q","judgmentIndices":[0,2,3,1],"questionScores":[2417,2421,null,24,null,32,2417,28,2395,22,null,null],"questionIndices":[10,30,43,0,49,7,36,3,13,44,4,25],"responseType":"finish","internal_node_id":"0.0-2.0-5.0","time_elapsed":135364,"trial_index":7,"trial_type":"survey-likert","responses":"{\"Q0\":\"4\",\"Q1\":\"4\",\"Q2\":\"3\",\"Q3\":\"0\"}","rt":6715},{"participantID":"pkgqdho721m55cg70rxef9fqkr03pg5q","judgmentIndices":[0,2,3,1],"questionScores":[2417,2421,null,24,null,32,2417,28,2395,22,null,null],"questionIndices":[10,30,43,0,49,7,36,3,13,44,4,25],"responseType":"finish","internal_node_id":"0.0-3.0","time_elapsed":149370,"trial_index":8,"trial_type":"survey-likert","responses":"{\"Q0\":\"3\",\"Q1\":\"2\",\"Q2\":\"2\",\"Q3\":\"0\",\"Q4\":\"6\"}","rt":13003},{"participantID":"pkgqdho721m55cg70rxef9fqkr03pg5q","judgmentIndices":[0,2,3,1],"questionScores":[2417,2421,null,24,null,32,2417,28,2395,22,null,null],"questionIndices":[10,30,43,0,49,7,36,3,13,44,4,25],"responseType":"finish","internal_node_id":"0.0-4.0-0.0","time_elapsed":160235,"trial_index":9,"trial_type":"survey-likert","responses":"{\"Q0\":\"4\",\"Q1\":\"4\",\"Q2\":\"4\",\"Q3\":\"0\"}","rt":9862},{"participantID":"pkgqdho721m55cg70rxef9fqkr03pg5q","judgmentIndices":[0,2,3,1],"questionScores":[2417,2421,null,24,null,32,2417,28,2395,22,null,null],"questionIndices":[10,30,43,0,49,7,36,3,13,44,4,25],"responseType":"finish","internal_node_id":"0.0-4.0-1.0","time_elapsed":171799,"trial_index":10,"trial_type":"survey-likert","responses":"{\"Q0\":\"4\",\"Q1\":\"4\",\"Q2\":\"2\",\"Q3\":\"0\"}","rt":10561},{"participantID":"pkgqdho721m55cg70rxef9fqkr03pg5q","judgmentIndices":[0,2,3,1],"questionScores":[2417,2421,null,24,null,32,2417,28,2395,22,null,null],"questionIndices":[10,30,43,0,49,7,36,3,13,44,4,25],"responseType":"finish","internal_node_id":"0.0-4.0-2.0","time_elapsed":179791,"trial_index":11,"trial_type":"survey-likert","responses":"{\"Q0\":\"4\",\"Q1\":\"4\",\"Q2\":\"5\",\"Q3\":\"0\"}","rt":6989},{"participantID":"pkgqdho721m55cg70rxef9fqkr03pg5q","judgmentIndices":[0,2,3,1],"questionScores":[2417,2421,null,24,null,32,2417,28,2395,22,null,null],"questionIndices":[10,30,43,0,49,7,36,3,13,44,4,25],"responseType":"finish","internal_node_id":"0.0-4.0-3.0","time_elapsed":187966,"trial_index":12,"trial_type":"survey-likert","responses":"{\"Q0\":\"5\",\"Q1\":\"5\",\"Q2\":\"5\",\"Q3\":\"0\"}","rt":7172},{"participantID":"pkgqdho721m55cg70rxef9fqkr03pg5q","judgmentIndices":[0,2,3,1],"questionScores":[2417,2421,null,24,null,32,2417,28,2395,22,null,null],"questionIndices":[10,30,43,0,49,7,36,3,13,44,4,25],"responseType":"finish","internal_node_id":"0.0-4.0-4.0","time_elapsed":195758,"trial_index":13,"trial_type":"survey-likert","responses":"{\"Q0\":\"6\",\"Q1\":\"6\",\"Q2\":\"6\",\"Q3\":\"0\"}","rt":6784}],"__v":0}
{"_id":{"$oid":"5c8ff117201ca70004c2bc4f"},"data":[{"participantID":"qzj6joos7mlyoarvq0myj2a8tkzg7fxt","judgmentIndices":[2,3,0,1],"questionScores":[null,null,2398,null,36,2417,2395,23,null,37,2398,25],"questionIndices":[49,28,4,40,41,39,14,8,35,42,38,43],"responseType":"finish","internal_node_id":"0.0-0.0","time_elapsed":5672,"trial_index":0,"trial_type":"survey-multi-choice","responses":"{\"Q0\":\"I consent to participate\"}","rt":5653},{"participantID":"qzj6joos7mlyoarvq0myj2a8tkzg7fxt","judgmentIndices":[2,3,0,1],"questionScores":[null,null,2398,null,36,2417,2395,23,null,37,2398,25],"questionIndices":[49,28,4,40,41,39,14,8,35,42,38,43],"responseType":"finish","internal_node_id":"0.0-1.0","time_elapsed":22913,"trial_index":1,"trial_type":"instructions","rt":16239,"view_history":"[{\"page_index\":0,\"viewing_time\":16239}]"},{"participantID":"qzj6joos7mlyoarvq0myj2a8tkzg7fxt","judgmentIndices":[2,3,0,1],"questionScores":[null,null,2398,null,36,2417,2395,23,null,37,2398,25],"questionIndices":[49,28,4,40,41,39,14,8,35,42,38,43],"responseType":"finish","internal_node_id":"0.0-2.0-0.0","time_elapsed":45386,"trial_index":2,"trial_type":"survey-likert","responses":"{\"Q0\":\"2\",\"Q1\":\"3\",\"Q2\":\"3\",\"Q3\":\"0\"}","rt":21467},{"participantID":"qzj6joos7mlyoarvq0myj2a8tkzg7fxt","judgmentIndices":[2,3,0,1],"questionScores":[null,null,2398,null,36,2417,2395,23,null,37,2398,25],"questionIndices":[49,28,4,40,41,39,14,8,35,42,38,43],"responseType":"finish","internal_node_id":"0.0-2.0-1.0","time_elapsed":63335,"trial_index":3,"trial_type":"survey-likert","responses":"{\"Q0\":\"0\",\"Q1\":\"1\",\"Q2\":\"0\",\"Q3\":\"6\"}","rt":16946},{"participantID":"qzj6joos7mlyoarvq0myj2a8tkzg7fxt","judgmentIndices":[2,3,0,1],"questionScores":[null,null,2398,null,36,2417,2395,23,null,37,2398,25],"questionIndices":[49,28,4,40,41,39,14,8,35,42,38,43],"responseType":"finish","internal_node_id":"0.0-2.0-2.0","time_elapsed":81476,"trial_index":4,"trial_type":"survey-likert","responses":"{\"Q0\":\"4\",\"Q1\":\"2\",\"Q2\":\"5\",\"Q3\":\"0\"}","rt":17137},{"participantID":"qzj6joos7mlyoarvq0myj2a8tkzg7fxt","judgmentIndices":[2,3,0,1],"questionScores":[null,null,2398,null,36,2417,2395,23,null,37,2398,25],"questionIndices":[49,28,4,40,41,39,14,8,35,42,38,43],"responseType":"finish","internal_node_id":"0.0-2.0-3.0","time_elapsed":100077,"trial_index":5,"trial_type":"survey-likert","responses":"{\"Q0\":\"3\",\"Q1\":\"2\",\"Q2\":\"3\",\"Q3\":\"2\"}","rt":17596},{"participantID":"qzj6joos7mlyoarvq0myj2a8tkzg7fxt","judgmentIndices":[2,3,0,1],"questionScores":[null,null,2398,null,36,2417,2395,23,null,37,2398,25],"questionIndices":[49,28,4,40,41,39,14,8,35,42,38,43],"responseType":"finish","internal_node_id":"0.0-2.0-4.0","time_elapsed":119957,"trial_index":6,"trial_type":"survey-likert","responses":"{\"Q0\":\"1\",\"Q1\":\"1\",\"Q2\":\"1\",\"Q3\":\"0\"}","rt":18875},{"participantID":"qzj6joos7mlyoarvq0myj2a8tkzg7fxt","judgmentIndices":[2,3,0,1],"questionScores":[null,null,2398,null,36,2417,2395,23,null,37,2398,25],"questionIndices":[49,28,4,40,41,39,14,8,35,42,38,43],"responseType":"finish","internal_node_id":"0.0-2.0-5.0","time_elapsed":136866,"trial_index":7,"trial_type":"survey-likert","responses":"{\"Q0\":\"2\",\"Q1\":\"4\",\"Q2\":\"6\",\"Q3\":\"0\"}","rt":15904},{"participantID":"qzj6joos7mlyoarvq0myj2a8tkzg7fxt","judgmentIndices":[2,3,0,1],"questionScores":[null,null,2398,null,36,2417,2395,23,null,37,2398,25],"questionIndices":[49,28,4,40,41,39,14,8,35,42,38,43],"responseType":"finish","internal_node_id":"0.0-3.0","time_elapsed":159738,"trial_index":8,"trial_type":"survey-likert","responses":"{\"Q0\":\"2\",\"Q1\":\"1\",\"Q2\":\"3\",\"Q3\":\"0\",\"Q4\":\"6\"}","rt":21867},{"participantID":"qzj6joos7mlyoarvq0myj2a8tkzg7fxt","judgmentIndices":[2,3,0,1],"questionScores":[null,null,2398,null,36,2417,2395,23,null,37,2398,25],"questionIndices":[49,28,4,40,41,39,14,8,35,42,38,43],"responseType":"finish","internal_node_id":"0.0-4.0-0.0","time_elapsed":180060,"trial_index":9,"trial_type":"survey-likert","responses":"{\"Q0\":\"1\",\"Q1\":\"1\",\"Q2\":\"1\",\"Q3\":\"0\"}","rt":19318},{"participantID":"qzj6joos7mlyoarvq0myj2a8tkzg7fxt","judgmentIndices":[2,3,0,1],"questionScores":[null,null,2398,null,36,2417,2395,23,null,37,2398,25],"questionIndices":[49,28,4,40,41,39,14,8,35,42,38,43],"responseType":"finish","internal_node_id":"0.0-4.0-1.0","time_elapsed":200296,"trial_index":10,"trial_type":"survey-likert","responses":"{\"Q0\":\"3\",\"Q1\":\"3\",\"Q2\":\"3\",\"Q3\":\"0\"}","rt":19232},{"participantID":"qzj6joos7mlyoarvq0myj2a8tkzg7fxt","judgmentIndices":[2,3,0,1],"questionScores":[null,null,2398,null,36,2417,2395,23,null,37,2398,25],"questionIndices":[49,28,4,40,41,39,14,8,35,42,38,43],"responseType":"finish","internal_node_id":"0.0-4.0-2.0","time_elapsed":226440,"trial_index":11,"trial_type":"survey-likert","responses":"{\"Q0\":\"4\",\"Q1\":\"2\",\"Q2\":\"4\",\"Q3\":\"1\"}","rt":25137},{"participantID":"qzj6joos7mlyoarvq0myj2a8tkzg7fxt","judgmentIndices":[2,3,0,1],"questionScores":[null,null,2398,null,36,2417,2395,23,null,37,2398,25],"questionIndices":[49,28,4,40,41,39,14,8,35,42,38,43],"responseType":"finish","internal_node_id":"0.0-4.0-3.0","time_elapsed":246943,"trial_index":12,"trial_type":"survey-likert","responses":"{\"Q0\":\"0\",\"Q1\":\"1\",\"Q2\":\"2\",\"Q3\":\"3\"}","rt":19492},{"participantID":"qzj6joos7mlyoarvq0myj2a8tkzg7fxt","judgmentIndices":[2,3,0,1],"questionScores":[null,null,2398,null,36,2417,2395,23,null,37,2398,25],"questionIndices":[49,28,4,40,41,39,14,8,35,42,38,43],"responseType":"finish","internal_node_id":"0.0-4.0-4.0","time_elapsed":268414,"trial_index":13,"trial_type":"survey-likert","responses":"{\"Q0\":\"2\",\"Q1\":\"2\",\"Q2\":\"2\",\"Q3\":\"0\"}","rt":20467}],"__v":0}
{"_id":{"$oid":"5c8ff120201ca70004c2bc50"},"data":[{"participantID":"tzurry713jc57ymlgx7sp3hh11h6tr0y","judgmentIndices":[1,2,3,0],"questionScores":[null,20,2404,null,null,2407,null,34,31,16,2404,2392],"questionIndices":[22,29,18,13,12,11,46,27,31,39,5,14],"responseType":"finish","internal_node_id":"0.0-0.0","time_elapsed":13252,"trial_index":0,"trial_type":"survey-multi-choice","responses":"{\"Q0\":\"I consent to participate\"}","rt":13239},{"participantID":"tzurry713jc57ymlgx7sp3hh11h6tr0y","judgmentIndices":[1,2,3,0],"questionScores":[null,20,2404,null,null,2407,null,34,31,16,2404,2392],"questionIndices":[22,29,18,13,12,11,46,27,31,39,5,14],"responseType":"finish","internal_node_id":"0.0-1.0","time_elapsed":31593,"trial_index":1,"trial_type":"instructions","rt":17340,"view_history":"[{\"page_index\":0,\"viewing_time\":17339}]"},{"participantID":"tzurry713jc57ymlgx7sp3hh11h6tr0y","judgmentIndices":[1,2,3,0],"questionScores":[null,20,2404,null,null,2407,null,34,31,16,2404,2392],"questionIndices":[22,29,18,13,12,11,46,27,31,39,5,14],"responseType":"finish","internal_node_id":"0.0-2.0-0.0","time_elapsed":57235,"trial_index":2,"trial_type":"survey-likert","responses":"{\"Q0\":\"3\",\"Q1\":\"3\",\"Q2\":\"3\",\"Q3\":\"4\"}","rt":24631},{"participantID":"tzurry713jc57ymlgx7sp3hh11h6tr0y","judgmentIndices":[1,2,3,0],"questionScores":[null,20,2404,null,null,2407,null,34,31,16,2404,2392],"questionIndices":[22,29,18,13,12,11,46,27,31,39,5,14],"responseType":"finish","internal_node_id":"0.0-2.0-1.0","time_elapsed":81849,"trial_index":3,"trial_type":"survey-likert","responses":"{\"Q0\":\"6\",\"Q1\":\"6\",\"Q2\":\"3\",\"Q3\":\"1\"}","rt":23607},{"participantID":"tzurry713jc57ymlgx7sp3hh11h6tr0y","judgmentIndices":[1,2,3,0],"questionScores":[null,20,2404,null,null,2407,null,34,31,16,2404,2392],"questionIndices":[22,29,18,13,12,11,46,27,31,39,5,14],"responseType":"finish","internal_node_id":"0.0-2.0-2.0","time_elapsed":100993,"trial_index":4,"trial_type":"survey-likert","responses":"{\"Q0\":\"3\",\"Q1\":\"6\",\"Q2\":\"2\",\"Q3\":\"5\"}","rt":18136},{"participantID":"tzurry713jc57ymlgx7sp3hh11h6tr0y","judgmentIndices":[1,2,3,0],"questionScores":[null,20,2404,null,null,2407,null,34,31,16,2404,2392],"questionIndices":[22,29,18,13,12,11,46,27,31,39,5,14],"responseType":"finish","internal_node_id":"0.0-2.0-3.0","time_elapsed":117513,"trial_index":5,"trial_type":"survey-likert","responses":"{\"Q0\":\"0\",\"Q1\":\"0\",\"Q2\":\"0\",\"Q3\":\"3\"}","rt":15514},{"participantID":"tzurry713jc57ymlgx7sp3hh11h6tr0y","judgmentIndices":[1,2,3,0],"questionScores":[null,20,2404,null,null,2407,null,34,31,16,2404,2392],"questionIndices":[22,29,18,13,12,11,46,27,31,39,5,14],"responseType":"finish","internal_node_id":"0.0-2.0-4.0","time_elapsed":129151,"trial_index":6,"trial_type":"survey-likert","responses":"{\"Q0\":\"3\",\"Q1\":\"2\",\"Q2\":\"2\",\"Q3\":\"5\"}","rt":10632},{"participantID":"tzurry713jc57ymlgx7sp3hh11h6tr0y","judgmentIndices":[1,2,3,0],"questionScores":[null,20,2404,null,null,2407,null,34,31,16,2404,2392],"questionIndices":[22,29,18,13,12,11,46,27,31,39,5,14],"responseType":"finish","internal_node_id":"0.0-2.0-5.0","time_elapsed":140578,"trial_index":7,"trial_type":"survey-likert","responses":"{\"Q0\":\"0\",\"Q1\":\"0\",\"Q2\":\"0\",\"Q3\":\"0\"}","rt":10419},{"participantID":"tzurry713jc57ymlgx7sp3hh11h6tr0y","judgmentIndices":[1,2,3,0],"questionScores":[null,20,2404,null,null,2407,null,34,31,16,2404,2392],"questionIndices":[22,29,18,13,12,11,46,27,31,39,5,14],"responseType":"finish","internal_node_id":"0.0-3.0","time_elapsed":158931,"trial_index":8,"trial_type":"survey-likert","responses":"{\"Q0\":\"4\",\"Q1\":\"2\",\"Q2\":\"3\",\"Q3\":\"3\",\"Q4\":\"6\"}","rt":17345},{"participantID":"tzurry713jc57ymlgx7sp3hh11h6tr0y","judgmentIndices":[1,2,3,0],"questionScores":[null,20,2404,null,null,2407,null,34,31,16,2404,2392],"questionIndices":[22,29,18,13,12,11,46,27,31,39,5,14],"responseType":"finish","internal_node_id":"0.0-4.0-0.0","time_elapsed":174136,"trial_index":9,"trial_type":"survey-likert","responses":"{\"Q0\":\"3\",\"Q1\":\"3\",\"Q2\":\"3\",\"Q3\":\"4\"}","rt":14198},{"participantID":"tzurry713jc57ymlgx7sp3hh11h6tr0y","judgmentIndices":[1,2,3,0],"questionScores":[null,20,2404,null,null,2407,null,34,31,16,2404,2392],"questionIndices":[22,29,18,13,12,11,46,27,31,39,5,14],"responseType":"finish","internal_node_id":"0.0-4.0-1.0","time_elapsed":189096,"trial_index":10,"trial_type":"survey-likert","responses":"{\"Q0\":\"0\",\"Q1\":\"0\",\"Q2\":\"0\",\"Q3\":\"3\"}","rt":13952},{"participantID":"tzurry713jc57ymlgx7sp3hh11h6tr0y","judgmentIndices":[1,2,3,0],"questionScores":[null,20,2404,null,null,2407,null,34,31,16,2404,2392],"questionIndices":[22,29,18,13,12,11,46,27,31,39,5,14],"responseType":"finish","internal_node_id":"0.0-4.0-2.0","time_elapsed":215562,"trial_index":11,"trial_type":"survey-likert","responses":"{\"Q0\":\"0\",\"Q1\":\"4\",\"Q2\":\"3\",\"Q3\":\"4\"}","rt":25459},{"participantID":"tzurry713jc57ymlgx7sp3hh11h6tr0y","judgmentIndices":[1,2,3,0],"questionScores":[null,20,2404,null,null,2407,null,34,31,16,2404,2392],"questionIndices":[22,29,18,13,12,11,46,27,31,39,5,14],"responseType":"finish","internal_node_id":"0.0-4.0-3.0","time_elapsed":234384,"trial_index":12,"trial_type":"survey-likert","responses":"{\"Q0\":\"5\",\"Q1\":\"5\",\"Q2\":\"3\",\"Q3\":\"6\"}","rt":17814},{"participantID":"tzurry713jc57ymlgx7sp3hh11h6tr0y","judgmentIndices":[1,2,3,0],"questionScores":[null,20,2404,null,null,2407,null,34,31,16,2404,2392],"questionIndices":[22,29,18,13,12,11,46,27,31,39,5,14],"responseType":"finish","internal_node_id":"0.0-4.0-4.0","time_elapsed":251416,"trial_index":13,"trial_type":"survey-likert","responses":"{\"Q0\":\"6\",\"Q1\":\"3\",\"Q2\":\"3\",\"Q3\":\"5\"}","rt":16025}],"__v":0}
{"_id":{"$oid":"5c8ff13a201ca70004c2bc51"},"data":[{"participantID":"u201w2k8t1ag2ydp6z5l9h697zk75j58","judgmentIndices":[3,0,2,1],"questionScores":[2410,23,null,2413,2411,null,32,null,29,2410,14,null],"questionIndices":[2,33,48,16,31,13,30,28,46,42,32,4],"responseType":"finish","internal_node_id":"0.0-0.0","time_elapsed":6424,"trial_index":0,"trial_type":"survey-multi-choice","responses":"{\"Q0\":\"I consent to participate\"}","rt":6397},{"participantID":"u201w2k8t1ag2ydp6z5l9h697zk75j58","judgmentIndices":[3,0,2,1],"questionScores":[2410,23,null,2413,2411,null,32,null,29,2410,14,null],"questionIndices":[2,33,48,16,31,13,30,28,46,42,32,4],"responseType":"finish","internal_node_id":"0.0-1.0","time_elapsed":9190,"trial_index":1,"trial_type":"instructions","rt":1765,"view_history":"[{\"page_index\":0,\"viewing_time\":1763}]"},{"participantID":"u201w2k8t1ag2ydp6z5l9h697zk75j58","judgmentIndices":[3,0,2,1],"questionScores":[2410,23,null,2413,2411,null,32,null,29,2410,14,null],"questionIndices":[2,33,48,16,31,13,30,28,46,42,32,4],"responseType":"finish","internal_node_id":"0.0-2.0-0.0","time_elapsed":26630,"trial_index":2,"trial_type":"survey-likert","responses":"{\"Q0\":\"6\",\"Q1\":\"5\",\"Q2\":\"5\",\"Q3\":\"6\"}","rt":16420},{"participantID":"u201w2k8t1ag2ydp6z5l9h697zk75j58","judgmentIndices":[3,0,2,1],"questionScores":[2410,23,null,2413,2411,null,32,null,29,2410,14,null],"questionIndices":[2,33,48,16,31,13,30,28,46,42,32,4],"responseType":"finish","internal_node_id":"0.0-2.0-1.0","time_elapsed":38502,"trial_index":3,"trial_type":"survey-likert","responses":"{\"Q0\":\"5\",\"Q1\":\"4\",\"Q2\":\"5\",\"Q3\":\"6\"}","rt":10862},{"participantID":"u201w2k8t1ag2ydp6z5l9h697zk75j58","judgmentIndices":[3,0,2,1],"questionScores":[2410,23,null,2413,2411,null,32,null,29,2410,14,null],"questionIndices":[2,33,48,16,31,13,30,28,46,42,32,4],"responseType":"finish","internal_node_id":"0.0-2.0-2.0","time_elapsed":48813,"trial_index":4,"trial_type":"survey-likert","responses":"{\"Q0\":\"6\",\"Q1\":\"4\",\"Q2\":\"6\",\"Q3\":\"6\"}","rt":9301},{"participantID":"u201w2k8t1ag2ydp6z5l9h697zk75j58","judgmentIndices":[3,0,2,1],"questionScores":[2410,23,null,2413,2411,null,32,null,29,2410,14,null],"questionIndices":[2,33,48,16,31,13,30,28,46,42,32,4],"responseType":"finish","internal_node_id":"0.0-2.0-3.0","time_elapsed":60458,"trial_index":5,"trial_type":"survey-likert","responses":"{\"Q0\":\"5\",\"Q1\":\"6\",\"Q2\":\"5\",\"Q3\":\"6\"}","rt":10635},{"participantID":"u201w2k8t1ag2ydp6z5l9h697zk75j58","judgmentIndices":[3,0,2,1],"questionScores":[2410,23,null,2413,2411,null,32,null,29,2410,14,null],"questionIndices":[2,33,48,16,31,13,30,28,46,42,32,4],"responseType":"finish","internal_node_id":"0.0-2.0-4.0","time_elapsed":71808,"trial_index":6,"trial_type":"survey-likert","responses":"{\"Q0\":\"6\",\"Q1\":\"5\",\"Q2\":\"4\",\"Q3\":\"4\"}","rt":10338},{"participantID":"u201w2k8t1ag2ydp6z5l9h697zk75j58","judgmentIndices":[3,0,2,1],"questionScores":[2410,23,null,2413,2411,null,32,null,29,2410,14,null],"questionIndices":[2,33,48,16,31,13,30,28,46,42,32,4],"responseType":"finish","internal_node_id":"0.0-2.0-5.0","time_elapsed":80884,"trial_index":7,"trial_type":"survey-likert","responses":"{\"Q0\":\"3\",\"Q1\":\"4\",\"Q2\":\"3\",\"Q3\":\"3\"}","rt":8055},{"participantID":"u201w2k8t1ag2ydp6z5l9h697zk75j58","judgmentIndices":[3,0,2,1],"questionScores":[2410,23,null,2413,2411,null,32,null,29,2410,14,null],"questionIndices":[2,33,48,16,31,13,30,28,46,42,32,4],"responseType":"finish","internal_node_id":"0.0-3.0","time_elapsed":103253,"trial_index":8,"trial_type":"survey-likert","responses":"{\"Q0\":\"5\",\"Q1\":\"3\",\"Q2\":\"4\",\"Q3\":\"5\",\"Q4\":\"6\"}","rt":21357},{"participantID":"u201w2k8t1ag2ydp6z5l9h697zk75j58","judgmentIndices":[3,0,2,1],"questionScores":[2410,23,null,2413,2411,null,32,null,29,2410,14,null],"questionIndices":[2,33,48,16,31,13,30,28,46,42,32,4],"responseType":"finish","internal_node_id":"0.0-4.0-0.0","time_elapsed":112100,"trial_index":9,"trial_type":"survey-likert","responses":"{\"Q0\":\"4\",\"Q1\":\"5\",\"Q2\":\"4\",\"Q3\":\"6\"}","rt":7840},{"participantID":"u201w2k8t1ag2ydp6z5l9h697zk75j58","judgmentIndices":[3,0,2,1],"questionScores":[2410,23,null,2413,2411,null,32,null,29,2410,14,null],"questionIndices":[2,33,48,16,31,13,30,28,46,42,32,4],"responseType":"finish","internal_node_id":"0.0-4.0-1.0","time_elapsed":142295,"trial_index":10,"trial_type":"survey-likert","responses":"{\"Q0\":\"4\",\"Q1\":\"5\",\"Q2\":\"5\",\"Q3\":\"6\"}","rt":29186},{"participantID":"u201w2k8t1ag2ydp6z5l9h697zk75j58","judgmentIndices":[3,0,2,1],"questionScores":[2410,23,null,2413,2411,null,32,null,29,2410,14,null],"questionIndices":[2,33,48,16,31,13,30,28,46,42,32,4],"responseType":"finish","internal_node_id":"0.0-4.0-2.0","time_elapsed":159096,"trial_index":11,"trial_type":"survey-likert","responses":"{\"Q0\":\"5\",\"Q1\":\"4\",\"Q2\":\"5\",\"Q3\":\"5\"}","rt":15791},{"participantID":"u201w2k8t1ag2ydp6z5l9h697zk75j58","judgmentIndices":[3,0,2,1],"questionScores":[2410,23,null,2413,2411,null,32,null,29,2410,14,null],"questionIndices":[2,33,48,16,31,13,30,28,46,42,32,4],"responseType":"finish","internal_node_id":"0.0-4.0-3.0","time_elapsed":170016,"trial_index":12,"trial_type":"survey-likert","responses":"{\"Q0\":\"4\",\"Q1\":\"5\",\"Q2\":\"4\",\"Q3\":\"5\"}","rt":9908},{"participantID":"u201w2k8t1ag2ydp6z5l9h697zk75j58","judgmentIndices":[3,0,2,1],"questionScores":[2410,23,null,2413,2411,null,32,null,29,2410,14,null],"questionIndices":[2,33,48,16,31,13,30,28,46,42,32,4],"responseType":"finish","internal_node_id":"0.0-4.0-4.0","time_elapsed":178275,"trial_index":13,"trial_type":"survey-likert","responses":"{\"Q0\":\"5\",\"Q1\":\"4\",\"Q2\":\"4\",\"Q3\":\"5\"}","rt":7254}],"__v":0}
{"_id":{"$oid":"5c8ff147201ca70004c2bc52"},"data":[{"participantID":"8vtez6pcrwsebmxl3a09rg4xgk8d45ww","judgmentIndices":[0,2,1,3],"questionScores":[null,2405,null,2419,20,19,2423,2389,23,null,null,27],"questionIndices":[9,40,36,22,48,10,44,0,11,4,43,26],"responseType":"finish","internal_node_id":"0.0-0.0","time_elapsed":32373,"trial_index":0,"trial_type":"survey-multi-choice","responses":"{\"Q0\":\"I consent to participate\"}","rt":32332},{"participantID":"8vtez6pcrwsebmxl3a09rg4xgk8d45ww","judgmentIndices":[0,2,1,3],"questionScores":[null,2405,null,2419,20,19,2423,2389,23,null,null,27],"questionIndices":[9,40,36,22,48,10,44,0,11,4,43,26],"responseType":"finish","internal_node_id":"0.0-1.0","time_elapsed":53282,"trial_index":1,"trial_type":"instructions","rt":19907,"view_history":"[{\"page_index\":0,\"viewing_time\":19905}]"},{"participantID":"8vtez6pcrwsebmxl3a09rg4xgk8d45ww","judgmentIndices":[0,2,1,3],"questionScores":[null,2405,null,2419,20,19,2423,2389,23,null,null,27],"questionIndices":[9,40,36,22,48,10,44,0,11,4,43,26],"responseType":"finish","internal_node_id":"0.0-2.0-0.0","time_elapsed":80236,"trial_index":2,"trial_type":"survey-likert","responses":"{\"Q0\":\"5\",\"Q1\":\"3\",\"Q2\":\"5\",\"Q3\":\"4\"}","rt":25938},{"participantID":"8vtez6pcrwsebmxl3a09rg4xgk8d45ww","judgmentIndices":[0,2,1,3],"questionScores":[null,2405,null,2419,20,19,2423,2389,23,null,null,27],"questionIndices":[9,40,36,22,48,10,44,0,11,4,43,26],"responseType":"finish","internal_node_id":"0.0-2.0-1.0","time_elapsed":108202,"trial_index":3,"trial_type":"survey-likert","responses":"{\"Q0\":\"5\",\"Q1\":\"5\",\"Q2\":\"1\",\"Q3\":\"5\"}","rt":26956},{"participantID":"8vtez6pcrwsebmxl3a09rg4xgk8d45ww","judgmentIndices":[0,2,1,3],"questionScores":[null,2405,null,2419,20,19,2423,2389,23,null,null,27],"questionIndices":[9,40,36,22,48,10,44,0,11,4,43,26],"responseType":"finish","internal_node_id":"0.0-2.0-2.0","time_elapsed":122992,"trial_index":4,"trial_type":"survey-likert","responses":"{\"Q0\":\"3\",\"Q1\":\"3\",\"Q2\":\"1\",\"Q3\":\"3\"}","rt":13782},{"participantID":"8vtez6pcrwsebmxl3a09rg4xgk8d45ww","judgmentIndices":[0,2,1,3],"questionScores":[null,2405,null,2419,20,19,2423,2389,23,null,null,27],"questionIndices":[9,40,36,22,48,10,44,0,11,4,43,26],"responseType":"finish","internal_node_id":"0.0-2.0-3.0","time_elapsed":142857,"trial_index":5,"trial_type":"survey-likert","responses":"{\"Q0\":\"6\",\"Q1\":\"6\",\"Q2\":\"2\",\"Q3\":\"6\"}","rt":18853},{"participantID":"8vtez6pcrwsebmxl3a09rg4xgk8d45ww","judgmentIndices":[0,2,1,3],"questionScores":[null,2405,null,2419,20,19,2423,2389,23,null,null,27],"questionIndices":[9,40,36,22,48,10,44,0,11,4,43,26],"responseType":"finish","internal_node_id":"0.0-2.0-4.0","time_elapsed":158297,"trial_index":6,"trial_type":"survey-likert","responses":"{\"Q0\":\"1\",\"Q1\":\"1\",\"Q2\":\"1\",\"Q3\":\"1\"}","rt":14424},{"participantID":"8vtez6pcrwsebmxl3a09rg4xgk8d45ww","judgmentIndices":[0,2,1,3],"questionScores":[null,2405,null,2419,20,19,2423,2389,23,null,null,27],"questionIndices":[9,40,36,22,48,10,44,0,11,4,43,26],"responseType":"finish","internal_node_id":"0.0-2.0-5.0","time_elapsed":176081,"trial_index":7,"trial_type":"survey-likert","responses":"{\"Q0\":\"1\",\"Q1\":\"1\",\"Q2\":\"1\",\"Q3\":\"1\"}","rt":16762},{"participantID":"8vtez6pcrwsebmxl3a09rg4xgk8d45ww","judgmentIndices":[0,2,1,3],"questionScores":[null,2405,null,2419,20,19,2423,2389,23,null,null,27],"questionIndices":[9,40,36,22,48,10,44,0,11,4,43,26],"responseType":"finish","internal_node_id":"0.0-3.0","time_elapsed":204050,"trial_index":8,"trial_type":"survey-likert","responses":"{\"Q0\":\"3\",\"Q1\":\"1\",\"Q2\":\"1\",\"Q3\":\"1\",\"Q4\":\"6\"}","rt":26951},{"participantID":"8vtez6pcrwsebmxl3a09rg4xgk8d45ww","judgmentIndices":[0,2,1,3],"questionScores":[null,2405,null,2419,20,19,2423,2389,23,null,null,27],"questionIndices":[9,40,36,22,48,10,44,0,11,4,43,26],"responseType":"finish","internal_node_id":"0.0-4.0-0.0","time_elapsed":218472,"trial_index":9,"trial_type":"survey-likert","responses":"{\"Q0\":\"5\",\"Q1\":\"5\",\"Q2\":\"3\",\"Q3\":\"4\"}","rt":13414},{"participantID":"8vtez6pcrwsebmxl3a09rg4xgk8d45ww","judgmentIndices":[0,2,1,3],"questionScores":[null,2405,null,2419,20,19,2423,2389,23,null,null,27],"questionIndices":[9,40,36,22,48,10,44,0,11,4,43,26],"responseType":"finish","internal_node_id":"0.0-4.0-1.0","time_elapsed":241577,"trial_index":10,"trial_type":"survey-likert","responses":"{\"Q0\":\"4\",\"Q1\":\"4\",\"Q2\":\"5\",\"Q3\":\"3\"}","rt":22096},{"participantID":"8vtez6pcrwsebmxl3a09rg4xgk8d45ww","judgmentIndices":[0,2,1,3],"questionScores":[null,2405,null,2419,20,19,2423,2389,23,null,null,27],"questionIndices":[9,40,36,22,48,10,44,0,11,4,43,26],"responseType":"finish","internal_node_id":"0.0-4.0-2.0","time_elapsed":270537,"trial_index":11,"trial_type":"survey-likert","responses":"{\"Q0\":\"3\",\"Q1\":\"1\",\"Q2\":\"2\",\"Q3\":\"2\"}","rt":27952},{"participantID":"8vtez6pcrwsebmxl3a09rg4xgk8d45ww","judgmentIndices":[0,2,1,3],"questionScores":[null,2405,null,2419,20,19,2423,2389,23,null,null,27],"questionIndices":[9,40,36,22,48,10,44,0,11,4,43,26],"responseType":"finish","internal_node_id":"0.0-4.0-3.0","time_elapsed":288089,"trial_index":12,"trial_type":"survey-likert","responses":"{\"Q0\":\"5\",\"Q1\":\"5\",\"Q2\":\"4\",\"Q3\":\"5\"}","rt":16544},{"participantID":"8vtez6pcrwsebmxl3a09rg4xgk8d45ww","judgmentIndices":[0,2,1,3],"questionScores":[null,2405,null,2419,20,19,2423,2389,23,null,null,27],"questionIndices":[9,40,36,22,48,10,44,0,11,4,43,26],"responseType":"finish","internal_node_id":"0.0-4.0-4.0","time_elapsed":301248,"trial_index":13,"trial_type":"survey-likert","responses":"{\"Q0\":\"5\",\"Q1\":\"5\",\"Q2\":\"3\",\"Q3\":\"4\"}","rt":12150}],"__v":0}
{"_id":{"$oid":"5c8ff148201ca70004c2bc53"},"data":[{"participantID":"wby29gu4glz6q02zljp81g2ed3a6h7ho","judgmentIndices":[3,2,1,0],"questionScores":[15,null,18,12,20,null,null,2418,2407,null,2393,2424],"questionIndices":[7,26,22,34,24,33,49,12,41,28,17,21],"responseType":"finish","internal_node_id":"0.0-0.0","time_elapsed":8783,"trial_index":0,"trial_type":"survey-multi-choice","responses":"{\"Q0\":\"I consent to participate\"}","rt":8775},{"participantID":"wby29gu4glz6q02zljp81g2ed3a6h7ho","judgmentIndices":[3,2,1,0],"questionScores":[15,null,18,12,20,null,null,2418,2407,null,2393,2424],"questionIndices":[7,26,22,34,24,33,49,12,41,28,17,21],"responseType":"finish","internal_node_id":"0.0-1.0","time_elapsed":25996,"trial_index":1,"trial_type":"instructions","rt":16211,"view_history":"[{\"page_index\":0,\"viewing_time\":16211}]"},{"participantID":"wby29gu4glz6q02zljp81g2ed3a6h7ho","judgmentIndices":[3,2,1,0],"questionScores":[15,null,18,12,20,null,null,2418,2407,null,2393,2424],"questionIndices":[7,26,22,34,24,33,49,12,41,28,17,21],"responseType":"finish","internal_node_id":"0.0-2.0-0.0","time_elapsed":51852,"trial_index":2,"trial_type":"survey-likert","responses":"{\"Q0\":\"3\",\"Q1\":\"4\",\"Q2\":\"1\",\"Q3\":\"4\"}","rt":24851},{"participantID":"wby29gu4glz6q02zljp81g2ed3a6h7ho","judgmentIndices":[3,2,1,0],"questionScores":[15,null,18,12,20,null,null,2418,2407,null,2393,2424],"questionIndices":[7,26,22,34,24,33,49,12,41,28,17,21],"responseType":"finish","internal_node_id":"0.0-2.0-1.0","time_elapsed":73312,"trial_index":3,"trial_type":"survey-likert","responses":"{\"Q0\":\"4\",\"Q1\":\"3\",\"Q2\":\"1\",\"Q3\":\"4\"}","rt":20456},{"participantID":"wby29gu4glz6q02zljp81g2ed3a6h7ho","judgmentIndices":[3,2,1,0],"questionScores":[15,null,18,12,20,null,null,2418,2407,null,2393,2424],"questionIndices":[7,26,22,34,24,33,49,12,41,28,17,21],"responseType":"finish","internal_node_id":"0.0-2.0-2.0","time_elapsed":99696,"trial_index":4,"trial_type":"survey-likert","responses":"{\"Q0\":\"2\",\"Q1\":\"1\",\"Q2\":\"2\",\"Q3\":\"1\"}","rt":25379},{"participantID":"wby29gu4glz6q02zljp81g2ed3a6h7ho","judgmentIndices":[3,2,1,0],"questionScores":[15,null,18,12,20,null,null,2418,2407,null,2393,2424],"questionIndices":[7,26,22,34,24,33,49,12,41,28,17,21],"responseType":"finish","internal_node_id":"0.0-2.0-3.0","time_elapsed":124217,"trial_index":5,"trial_type":"survey-likert","responses":"{\"Q0\":\"3\",\"Q1\":\"3\",\"Q2\":\"3\",\"Q3\":\"2\"}","rt":23518},{"participantID":"wby29gu4glz6q02zljp81g2ed3a6h7ho","judgmentIndices":[3,2,1,0],"questionScores":[15,null,18,12,20,null,null,2418,2407,null,2393,2424],"questionIndices":[7,26,22,34,24,33,49,12,41,28,17,21],"responseType":"finish","internal_node_id":"0.0-2.0-4.0","time_elapsed":151459,"trial_index":6,"trial_type":"survey-likert","responses":"{\"Q0\":\"1\",\"Q1\":\"1\",\"Q2\":\"2\",\"Q3\":\"5\"}","rt":26239},{"participantID":"wby29gu4glz6q02zljp81g2ed3a6h7ho","judgmentIndices":[3,2,1,0],"questionScores":[15,null,18,12,20,null,null,2418,2407,null,2393,2424],"questionIndices":[7,26,22,34,24,33,49,12,41,28,17,21],"responseType":"finish","internal_node_id":"0.0-2.0-5.0","time_elapsed":171547,"trial_index":7,"trial_type":"survey-likert","responses":"{\"Q0\":\"1\",\"Q1\":\"2\",\"Q2\":\"2\",\"Q3\":\"1\"}","rt":19080},{"participantID":"wby29gu4glz6q02zljp81g2ed3a6h7ho","judgmentIndices":[3,2,1,0],"questionScores":[15,null,18,12,20,null,null,2418,2407,null,2393,2424],"questionIndices":[7,26,22,34,24,33,49,12,41,28,17,21],"responseType":"finish","internal_node_id":"0.0-3.0","time_elapsed":192607,"trial_index":8,"trial_type":"survey-likert","responses":"{\"Q0\":\"1\",\"Q1\":\"1\",\"Q2\":\"1\",\"Q3\":\"1\",\"Q4\":\"6\"}","rt":20056},{"participantID":"wby29gu4glz6q02zljp81g2ed3a6h7ho","judgmentIndices":[3,2,1,0],"questionScores":[15,null,18,12,20,null,null,2418,2407,null,2393,2424],"questionIndices":[7,26,22,34,24,33,49,12,41,28,17,21],"responseType":"finish","internal_node_id":"0.0-4.0-0.0","time_elapsed":211671,"trial_index":9,"trial_type":"survey-likert","responses":"{\"Q0\":\"4\",\"Q1\":\"3\",\"Q2\":\"1\",\"Q3\":\"4\"}","rt":18061},{"participantID":"wby29gu4glz6q02zljp81g2ed3a6h7ho","judgmentIndices":[3,2,1,0],"questionScores":[15,null,18,12,20,null,null,2418,2407,null,2393,2424],"questionIndices":[7,26,22,34,24,33,49,12,41,28,17,21],"responseType":"finish","internal_node_id":"0.0-4.0-1.0","time_elapsed":234807,"trial_index":10,"trial_type":"survey-likert","responses":"{\"Q0\":\"4\",\"Q1\":\"4\",\"Q2\":\"1\",\"Q3\":\"3\"}","rt":22132},{"participantID":"wby29gu4glz6q02zljp81g2ed3a6h7ho","judgmentIndices":[3,2,1,0],"questionScores":[15,null,18,12,20,null,null,2418,2407,null,2393,2424],"questionIndices":[7,26,22,34,24,33,49,12,41,28,17,21],"responseType":"finish","internal_node_id":"0.0-4.0-2.0","time_elapsed":252589,"trial_index":11,"trial_type":"survey-likert","responses":"{\"Q0\":\"1\",\"Q1\":\"1\",\"Q2\":\"4\",\"Q3\":\"2\"}","rt":16779},{"participantID":"wby29gu4glz6q02zljp81g2ed3a6h7ho","judgmentIndices":[3,2,1,0],"questionScores":[15,null,18,12,20,null,null,2418,2407,null,2393,2424],"questionIndices":[7,26,22,34,24,33,49,12,41,28,17,21],"responseType":"finish","internal_node_id":"0.0-4.0-3.0","time_elapsed":270165,"trial_index":12,"trial_type":"survey-likert","responses":"{\"Q0\":\"4\",\"Q1\":\"5\",\"Q2\":\"3\",\"Q3\":\"1\"}","rt":16573},{"participantID":"wby29gu4glz6q02zljp81g2ed3a6h7ho","judgmentIndices":[3,2,1,0],"questionScores":[15,null,18,12,20,null,null,2418,2407,null,2393,2424],"questionIndices":[7,26,22,34,24,33,49,12,41,28,17,21],"responseType":"finish","internal_node_id":"0.0-4.0-4.0","time_elapsed":282935,"trial_index":13,"trial_type":"survey-likert","responses":"{\"Q0\":\"1\",\"Q1\":\"1\",\"Q2\":\"0\",\"Q3\":\"0\"}","rt":11766}],"__v":0}
{"_id":{"$oid":"5c8ff153201ca70004c2bc54"},"data":[{"participantID":"yvdzsw76ddzghar9z2cyt23n2h8nhb9e","judgmentIndices":[2,1,3,0],"questionScores":[25,null,null,2407,null,2394,18,null,2404,31,2409,16],"questionIndices":[7,4,48,3,12,0,35,30,49,41,10,5],"responseType":"finish","internal_node_id":"0.0-0.0","time_elapsed":3222,"trial_index":0,"trial_type":"survey-multi-choice","responses":"{\"Q0\":\"I consent to participate\"}","rt":3200},{"participantID":"yvdzsw76ddzghar9z2cyt23n2h8nhb9e","judgmentIndices":[2,1,3,0],"questionScores":[25,null,null,2407,null,2394,18,null,2404,31,2409,16],"questionIndices":[7,4,48,3,12,0,35,30,49,41,10,5],"responseType":"finish","internal_node_id":"0.0-1.0","time_elapsed":12609,"trial_index":1,"trial_type":"instructions","rt":8383,"view_history":"[{\"page_index\":0,\"viewing_time\":8382}]"},{"participantID":"yvdzsw76ddzghar9z2cyt23n2h8nhb9e","judgmentIndices":[2,1,3,0],"questionScores":[25,null,null,2407,null,2394,18,null,2404,31,2409,16],"questionIndices":[7,4,48,3,12,0,35,30,49,41,10,5],"responseType":"finish","internal_node_id":"0.0-2.0-0.0","time_elapsed":27858,"trial_index":2,"trial_type":"survey-likert","responses":"{\"Q0\":\"2\",\"Q1\":\"3\",\"Q2\":\"1\",\"Q3\":\"3\"}","rt":14234},{"participantID":"yvdzsw76ddzghar9z2cyt23n2h8nhb9e","judgmentIndices":[2,1,3,0],"questionScores":[25,null,null,2407,null,2394,18,null,2404,31,2409,16],"questionIndices":[7,4,48,3,12,0,35,30,49,41,10,5],"responseType":"finish","internal_node_id":"0.0-2.0-1.0","time_elapsed":40263,"trial_index":3,"trial_type":"survey-likert","responses":"{\"Q0\":\"2\",\"Q1\":\"1\",\"Q2\":\"2\",\"Q3\":\"4\"}","rt":11392},{"participantID":"yvdzsw76ddzghar9z2cyt23n2h8nhb9e","judgmentIndices":[2,1,3,0],"questionScores":[25,null,null,2407,null,2394,18,null,2404,31,2409,16],"questionIndices":[7,4,48,3,12,0,35,30,49,41,10,5],"responseType":"finish","internal_node_id":"0.0-2.0-2.0","time_elapsed":54534,"trial_index":4,"trial_type":"survey-likert","responses":"{\"Q0\":\"2\",\"Q1\":\"0\",\"Q2\":\"1\",\"Q3\":\"1\"}","rt":13258},{"participantID":"yvdzsw76ddzghar9z2cyt23n2h8nhb9e","judgmentIndices":[2,1,3,0],"questionScores":[25,null,null,2407,null,2394,18,null,2404,31,2409,16],"questionIndices":[7,4,48,3,12,0,35,30,49,41,10,5],"responseType":"finish","internal_node_id":"0.0-2.0-3.0","time_elapsed":66975,"trial_index":5,"trial_type":"survey-likert","responses":"{\"Q0\":\"3\",\"Q1\":\"2\",\"Q2\":\"4\",\"Q3\":\"6\"}","rt":11429},{"participantID":"yvdzsw76ddzghar9z2cyt23n2h8nhb9e","judgmentIndices":[2,1,3,0],"questionScores":[25,null,null,2407,null,2394,18,null,2404,31,2409,16],"questionIndices":[7,4,48,3,12,0,35,30,49,41,10,5],"responseType":"finish","internal_node_id":"0.0-2.0-4.0","time_elapsed":76422,"trial_index":6,"trial_type":"survey-likert","responses":"{\"Q0\":\"4\",\"Q1\":\"1\",\"Q2\":\"2\",\"Q3\":\"5\"}","rt":8434},{"participantID":"yvdzsw76ddzghar9z2cyt23n2h8nhb9e","judgmentIndices":[2,1,3,0],"questionScores":[25,null,null,2407,null,2394,18,null,2404,31,2409,16],"questionIndices":[7,4,48,3,12,0,35,30,49,41,10,5],"responseType":"finish","internal_node_id":"0.0-2.0-5.0","time_elapsed":85818,"trial_index":7,"trial_type":"survey-likert","responses":"{\"Q0\":\"1\",\"Q1\":\"1\",\"Q2\":\"1\",\"Q3\":\"1\"}","rt":8383},{"participantID":"yvdzsw76ddzghar9z2cyt23n2h8nhb9e","judgmentIndices":[2,1,3,0],"questionScores":[25,null,null,2407,null,2394,18,null,2404,31,2409,16],"questionIndices":[7,4,48,3,12,0,35,30,49,41,10,5],"responseType":"finish","internal_node_id":"0.0-3.0","time_elapsed":101271,"trial_index":8,"trial_type":"survey-likert","responses":"{\"Q0\":\"1\",\"Q1\":\"2\",\"Q2\":\"0\",\"Q3\":\"1\",\"Q4\":\"6\"}","rt":14439},{"participantID":"yvdzsw76ddzghar9z2cyt23n2h8nhb9e","judgmentIndices":[2,1,3,0],"questionScores":[25,null,null,2407,null,2394,18,null,2404,31,2409,16],"questionIndices":[7,4,48,3,12,0,35,30,49,41,10,5],"responseType":"finish","internal_node_id":"0.0-4.0-0.0","time_elapsed":115168,"trial_index":9,"trial_type":"survey-likert","responses":"{\"Q0\":\"2\",\"Q1\":\"2\",\"Q2\":\"2\",\"Q3\":\"4\"}","rt":12885},{"participantID":"yvdzsw76ddzghar9z2cyt23n2h8nhb9e","judgmentIndices":[2,1,3,0],"questionScores":[25,null,null,2407,null,2394,18,null,2404,31,2409,16],"questionIndices":[7,4,48,3,12,0,35,30,49,41,10,5],"responseType":"finish","internal_node_id":"0.0-4.0-1.0","time_elapsed":129206,"trial_index":10,"trial_type":"survey-likert","responses":"{\"Q0\":\"3\",\"Q1\":\"0\",\"Q2\":\"1\",\"Q3\":\"5\"}","rt":13025},{"participantID":"yvdzsw76ddzghar9z2cyt23n2h8nhb9e","judgmentIndices":[2,1,3,0],"questionScores":[25,null,null,2407,null,2394,18,null,2404,31,2409,16],"questionIndices":[7,4,48,3,12,0,35,30,49,41,10,5],"responseType":"finish","internal_node_id":"0.0-4.0-2.0","time_elapsed":144246,"trial_index":11,"trial_type":"survey-likert","responses":"{\"Q0\":\"4\",\"Q1\":\"6\",\"Q2\":\"4\",\"Q3\":\"0\"}","rt":14027},{"participantID":"yvdzsw76ddzghar9z2cyt23n2h8nhb9e","judgmentIndices":[2,1,3,0],"questionScores":[25,null,null,2407,null,2394,18,null,2404,31,2409,16],"questionIndices":[7,4,48,3,12,0,35,30,49,41,10,5],"responseType":"finish","internal_node_id":"0.0-4.0-3.0","time_elapsed":156405,"trial_index":12,"trial_type":"survey-likert","responses":"{\"Q0\":\"1\",\"Q1\":\"0\",\"Q2\":\"4\",\"Q3\":\"4\"}","rt":11146},{"participantID":"yvdzsw76ddzghar9z2cyt23n2h8nhb9e","judgmentIndices":[2,1,3,0],"questionScores":[25,null,null,2407,null,2394,18,null,2404,31,2409,16],"questionIndices":[7,4,48,3,12,0,35,30,49,41,10,5],"responseType":"finish","internal_node_id":"0.0-4.0-4.0","time_elapsed":165977,"trial_index":13,"trial_type":"survey-likert","responses":"{\"Q0\":\"2\",\"Q1\":\"0\",\"Q2\":\"1\",\"Q3\":\"3\"}","rt":8563}],"__v":0}
{"_id":{"$oid":"5c8ff168201ca70004c2bc55"},"data":[{"participantID":"6stf2ewq028vgo66xjla2581tugzmrva","judgmentIndices":[0,1,3,2],"questionScores":[11,2405,12,2389,2399,null,39,null,null,18,null,2386],"questionIndices":[17,15,31,0,30,6,11,48,22,24,1,43],"responseType":"finish","internal_node_id":"0.0-0.0","time_elapsed":32979,"trial_index":0,"trial_type":"survey-multi-choice","responses":"{\"Q0\":\"I consent to participate\"}","rt":32970},{"participantID":"6stf2ewq028vgo66xjla2581tugzmrva","judgmentIndices":[0,1,3,2],"questionScores":[11,2405,12,2389,2399,null,39,null,null,18,null,2386],"questionIndices":[17,15,31,0,30,6,11,48,22,24,1,43],"responseType":"finish","internal_node_id":"0.0-1.0","time_elapsed":44464,"trial_index":1,"trial_type":"instructions","rt":10481,"view_history":"[{\"page_index\":0,\"viewing_time\":10481}]"},{"participantID":"6stf2ewq028vgo66xjla2581tugzmrva","judgmentIndices":[0,1,3,2],"questionScores":[11,2405,12,2389,2399,null,39,null,null,18,null,2386],"questionIndices":[17,15,31,0,30,6,11,48,22,24,1,43],"responseType":"finish","internal_node_id":"0.0-2.0-0.0","time_elapsed":78282,"trial_index":2,"trial_type":"survey-likert","responses":"{\"Q0\":\"0\",\"Q1\":\"0\",\"Q2\":\"0\",\"Q3\":\"0\"}","rt":32814},{"participantID":"6stf2ewq028vgo66xjla2581tugzmrva","judgmentIndices":[0,1,3,2],"questionScores":[11,2405,12,2389,2399,null,39,null,null,18,null,2386],"questionIndices":[17,15,31,0,30,6,11,48,22,24,1,43],"responseType":"finish","internal_node_id":"0.0-2.0-1.0","time_elapsed":91226,"trial_index":3,"trial_type":"survey-likert","responses":"{\"Q0\":\"0\",\"Q1\":\"0\",\"Q2\":\"0\",\"Q3\":\"0\"}","rt":11940},{"participantID":"6stf2ewq028vgo66xjla2581tugzmrva","judgmentIndices":[0,1,3,2],"questionScores":[11,2405,12,2389,2399,null,39,null,null,18,null,2386],"questionIndices":[17,15,31,0,30,6,11,48,22,24,1,43],"responseType":"finish","internal_node_id":"0.0-2.0-2.0","time_elapsed":101337,"trial_index":4,"trial_type":"survey-likert","responses":"{\"Q0\":\"0\",\"Q1\":\"0\",\"Q2\":\"0\",\"Q3\":\"0\"}","rt":9107},{"participantID":"6stf2ewq028vgo66xjla2581tugzmrva","judgmentIndices":[0,1,3,2],"questionScores":[11,2405,12,2389,2399,null,39,null,null,18,null,2386],"questionIndices":[17,15,31,0,30,6,11,48,22,24,1,43],"responseType":"finish","internal_node_id":"0.0-2.0-3.0","time_elapsed":110125,"trial_index":5,"trial_type":"survey-likert","responses":"{\"Q0\":\"0\",\"Q1\":\"0\",\"Q2\":\"0\",\"Q3\":\"0\"}","rt":7783},{"participantID":"6stf2ewq028vgo66xjla2581tugzmrva","judgmentIndices":[0,1,3,2],"questionScores":[11,2405,12,2389,2399,null,39,null,null,18,null,2386],"questionIndices":[17,15,31,0,30,6,11,48,22,24,1,43],"responseType":"finish","internal_node_id":"0.0-2.0-4.0","time_elapsed":122538,"trial_index":6,"trial_type":"survey-likert","responses":"{\"Q0\":\"0\",\"Q1\":\"0\",\"Q2\":\"0\",\"Q3\":\"0\"}","rt":11408},{"participantID":"6stf2ewq028vgo66xjla2581tugzmrva","judgmentIndices":[0,1,3,2],"questionScores":[11,2405,12,2389,2399,null,39,null,null,18,null,2386],"questionIndices":[17,15,31,0,30,6,11,48,22,24,1,43],"responseType":"finish","internal_node_id":"0.0-2.0-5.0","time_elapsed":133915,"trial_index":7,"trial_type":"survey-likert","responses":"{\"Q0\":\"0\",\"Q1\":\"0\",\"Q2\":\"0\",\"Q3\":\"0\"}","rt":10374},{"participantID":"6stf2ewq028vgo66xjla2581tugzmrva","judgmentIndices":[0,1,3,2],"questionScores":[11,2405,12,2389,2399,null,39,null,null,18,null,2386],"questionIndices":[17,15,31,0,30,6,11,48,22,24,1,43],"responseType":"finish","internal_node_id":"0.0-3.0","time_elapsed":156245,"trial_index":8,"trial_type":"survey-likert","responses":"{\"Q0\":\"0\",\"Q1\":\"0\",\"Q2\":\"0\",\"Q3\":\"0\",\"Q4\":\"6\"}","rt":21323},{"participantID":"6stf2ewq028vgo66xjla2581tugzmrva","judgmentIndices":[0,1,3,2],"questionScores":[11,2405,12,2389,2399,null,39,null,null,18,null,2386],"questionIndices":[17,15,31,0,30,6,11,48,22,24,1,43],"responseType":"finish","internal_node_id":"0.0-4.0-0.0","time_elapsed":176628,"trial_index":9,"trial_type":"survey-likert","responses":"{\"Q0\":\"0\",\"Q1\":\"0\",\"Q2\":\"0\",\"Q3\":\"0\"}","rt":19379},{"participantID":"6stf2ewq028vgo66xjla2581tugzmrva","judgmentIndices":[0,1,3,2],"questionScores":[11,2405,12,2389,2399,null,39,null,null,18,null,2386],"questionIndices":[17,15,31,0,30,6,11,48,22,24,1,43],"responseType":"finish","internal_node_id":"0.0-4.0-1.0","time_elapsed":193625,"trial_index":10,"trial_type":"survey-likert","responses":"{\"Q0\":\"0\",\"Q1\":\"0\",\"Q2\":\"0\",\"Q3\":\"0\"}","rt":15993},{"participantID":"6stf2ewq028vgo66xjla2581tugzmrva","judgmentIndices":[0,1,3,2],"questionScores":[11,2405,12,2389,2399,null,39,null,null,18,null,2386],"questionIndices":[17,15,31,0,30,6,11,48,22,24,1,43],"responseType":"finish","internal_node_id":"0.0-4.0-2.0","time_elapsed":204844,"trial_index":11,"trial_type":"survey-likert","responses":"{\"Q0\":\"0\",\"Q1\":\"0\",\"Q2\":\"0\",\"Q3\":\"0\"}","rt":10215},{"participantID":"6stf2ewq028vgo66xjla2581tugzmrva","judgmentIndices":[0,1,3,2],"questionScores":[11,2405,12,2389,2399,null,39,null,null,18,null,2386],"questionIndices":[17,15,31,0,30,6,11,48,22,24,1,43],"responseType":"finish","internal_node_id":"0.0-4.0-3.0","time_elapsed":217297,"trial_index":12,"trial_type":"survey-likert","responses":"{\"Q0\":\"0\",\"Q1\":\"0\",\"Q2\":\"0\",\"Q3\":\"0\"}","rt":11448},{"participantID":"6stf2ewq028vgo66xjla2581tugzmrva","judgmentIndices":[0,1,3,2],"questionScores":[11,2405,12,2389,2399,null,39,null,null,18,null,2386],"questionIndices":[17,15,31,0,30,6,11,48,22,24,1,43],"responseType":"finish","internal_node_id":"0.0-4.0-4.0","time_elapsed":229055,"trial_index":13,"trial_type":"survey-likert","responses":"{\"Q0\":\"0\",\"Q1\":\"0\",\"Q2\":\"0\",\"Q3\":\"0\"}","rt":10754}],"__v":0}
{"_id":{"$oid":"5c8ff179201ca70004c2bc56"},"data":[{"participantID":"rwn7xjfqyd31mcszq9hngxpxl3x38pmt","judgmentIndices":[1,2,3,0],"questionScores":[2392,29,20,2410,null,2434,null,null,5,null,2427,28],"questionIndices":[0,36,11,1,33,49,9,43,25,2,44,8],"responseType":"finish","internal_node_id":"0.0-0.0","time_elapsed":5296,"trial_index":0,"trial_type":"survey-multi-choice","responses":"{\"Q0\":\"I consent to participate\"}","rt":5283},{"participantID":"rwn7xjfqyd31mcszq9hngxpxl3x38pmt","judgmentIndices":[1,2,3,0],"questionScores":[2392,29,20,2410,null,2434,null,null,5,null,2427,28],"questionIndices":[0,36,11,1,33,49,9,43,25,2,44,8],"responseType":"finish","internal_node_id":"0.0-1.0","time_elapsed":21312,"trial_index":1,"trial_type":"instructions","rt":15014,"view_history":"[{\"page_index\":0,\"viewing_time\":15014}]"},{"participantID":"rwn7xjfqyd31mcszq9hngxpxl3x38pmt","judgmentIndices":[1,2,3,0],"questionScores":[2392,29,20,2410,null,2434,null,null,5,null,2427,28],"questionIndices":[0,36,11,1,33,49,9,43,25,2,44,8],"responseType":"finish","internal_node_id":"0.0-2.0-0.0","time_elapsed":35840,"trial_index":2,"trial_type":"survey-likert","responses":"{\"Q0\":\"0\",\"Q1\":\"0\",\"Q2\":\"0\",\"Q3\":\"0\"}","rt":13523},{"participantID":"rwn7xjfqyd31mcszq9hngxpxl3x38pmt","judgmentIndices":[1,2,3,0],"questionScores":[2392,29,20,2410,null,2434,null,null,5,null,2427,28],"questionIndices":[0,36,11,1,33,49,9,43,25,2,44,8],"responseType":"finish","internal_node_id":"0.0-2.0-1.0","time_elapsed":54092,"trial_index":3,"trial_type":"survey-likert","responses":"{\"Q0\":\"1\",\"Q1\":\"0\",\"Q2\":\"0\",\"Q3\":\"4\"}","rt":17248},{"participantID":"rwn7xjfqyd31mcszq9hngxpxl3x38pmt","judgmentIndices":[1,2,3,0],"questionScores":[2392,29,20,2410,null,2434,null,null,5,null,2427,28],"questionIndices":[0,36,11,1,33,49,9,43,25,2,44,8],"responseType":"finish","internal_node_id":"0.0-2.0-2.0","time_elapsed":67848,"trial_index":4,"trial_type":"survey-likert","responses":"{\"Q0\":\"0\",\"Q1\":\"1\",\"Q2\":\"0\",\"Q3\":\"5\"}","rt":12752},{"participantID":"rwn7xjfqyd31mcszq9hngxpxl3x38pmt","judgmentIndices":[1,2,3,0],"questionScores":[2392,29,20,2410,null,2434,null,null,5,null,2427,28],"questionIndices":[0,36,11,1,33,49,9,43,25,2,44,8],"responseType":"finish","internal_node_id":"0.0-2.0-3.0","time_elapsed":80498,"trial_index":5,"trial_type":"survey-likert","responses":"{\"Q0\":\"0\",\"Q1\":\"0\",\"Q2\":\"0\",\"Q3\":\"5\"}","rt":11645},{"participantID":"rwn7xjfqyd31mcszq9hngxpxl3x38pmt","judgmentIndices":[1,2,3,0],"questionScores":[2392,29,20,2410,null,2434,null,null,5,null,2427,28],"questionIndices":[0,36,11,1,33,49,9,43,25,2,44,8],"responseType":"finish","internal_node_id":"0.0-2.0-4.0","time_elapsed":92576,"trial_index":6,"trial_type":"survey-likert","responses":"{\"Q0\":\"0\",\"Q1\":\"0\",\"Q2\":\"0\",\"Q3\":\"6\"}","rt":11073},{"participantID":"rwn7xjfqyd31mcszq9hngxpxl3x38pmt","judgmentIndices":[1,2,3,0],"questionScores":[2392,29,20,2410,null,2434,null,null,5,null,2427,28],"questionIndices":[0,36,11,1,33,49,9,43,25,2,44,8],"responseType":"finish","internal_node_id":"0.0-2.0-5.0","time_elapsed":104307,"trial_index":7,"trial_type":"survey-likert","responses":"{\"Q0\":\"0\",\"Q1\":\"0\",\"Q2\":\"0\",\"Q3\":\"4\"}","rt":10727},{"participantID":"rwn7xjfqyd31mcszq9hngxpxl3x38pmt","judgmentIndices":[1,2,3,0],"questionScores":[2392,29,20,2410,null,2434,null,null,5,null,2427,28],"questionIndices":[0,36,11,1,33,49,9,43,25,2,44,8],"responseType":"finish","internal_node_id":"0.0-3.0","time_elapsed":123326,"trial_index":8,"trial_type":"survey-likert","responses":"{\"Q0\":\"0\",\"Q1\":\"1\",\"Q2\":\"0\",\"Q3\":\"4\",\"Q4\":\"6\"}","rt":18014},{"participantID":"rwn7xjfqyd31mcszq9hngxpxl3x38pmt","judgmentIndices":[1,2,3,0],"questionScores":[2392,29,20,2410,null,2434,null,null,5,null,2427,28],"questionIndices":[0,36,11,1,33,49,9,43,25,2,44,8],"responseType":"finish","internal_node_id":"0.0-4.0-0.0","time_elapsed":138047,"trial_index":9,"trial_type":"survey-likert","responses":"{\"Q0\":\"0\",\"Q1\":\"4\",\"Q2\":\"1\",\"Q3\":\"4\"}","rt":13716},{"participantID":"rwn7xjfqyd31mcszq9hngxpxl3x38pmt","judgmentIndices":[1,2,3,0],"questionScores":[2392,29,20,2410,null,2434,null,null,5,null,2427,28],"questionIndices":[0,36,11,1,33,49,9,43,25,2,44,8],"responseType":"finish","internal_node_id":"0.0-4.0-1.0","time_elapsed":185943,"trial_index":10,"trial_type":"survey-likert","responses":"{\"Q0\":\"0\",\"Q1\":\"0\",\"Q2\":\"0\",\"Q3\":\"0\"}","rt":46890},{"participantID":"rwn7xjfqyd31mcszq9hngxpxl3x38pmt","judgmentIndices":[1,2,3,0],"questionScores":[2392,29,20,2410,null,2434,null,null,5,null,2427,28],"questionIndices":[0,36,11,1,33,49,9,43,25,2,44,8],"responseType":"finish","internal_node_id":"0.0-4.0-2.0","time_elapsed":195512,"trial_index":11,"trial_type":"survey-likert","responses":"{\"Q0\":\"0\",\"Q1\":\"0\",\"Q2\":\"0\",\"Q3\":\"0\"}","rt":8565},{"participantID":"rwn7xjfqyd31mcszq9hngxpxl3x38pmt","judgmentIndices":[1,2,3,0],"questionScores":[2392,29,20,2410,null,2434,null,null,5,null,2427,28],"questionIndices":[0,36,11,1,33,49,9,43,25,2,44,8],"responseType":"finish","internal_node_id":"0.0-4.0-3.0","time_elapsed":205242,"trial_index":12,"trial_type":"survey-likert","responses":"{\"Q0\":\"0\",\"Q1\":\"2\",\"Q2\":\"0\",\"Q3\":\"2\"}","rt":8726},{"participantID":"rwn7xjfqyd31mcszq9hngxpxl3x38pmt","judgmentIndices":[1,2,3,0],"questionScores":[2392,29,20,2410,null,2434,null,null,5,null,2427,28],"questionIndices":[0,36,11,1,33,49,9,43,25,2,44,8],"responseType":"finish","internal_node_id":"0.0-4.0-4.0","time_elapsed":216963,"trial_index":13,"trial_type":"survey-likert","responses":"{\"Q0\":\"0\",\"Q1\":\"0\",\"Q2\":\"0\",\"Q3\":\"2\"}","rt":10716}],"__v":0}
{"_id":{"$oid":"5c8ff185201ca70004c2bc57"},"data":[{"participantID":"4o3k9a6ltyzaapxwoeo07qgbbpz2jn5t","judgmentIndices":[3,1,0,2],"questionScores":[2424,2384,10,null,2402,null,32,21,2390,null,null,39],"questionIndices":[9,34,42,16,32,49,1,47,46,25,31,2],"responseType":"finish","internal_node_id":"0.0-0.0","time_elapsed":43274,"trial_index":0,"trial_type":"survey-multi-choice","responses":"{\"Q0\":\"I consent to participate\"}","rt":43254},{"participantID":"4o3k9a6ltyzaapxwoeo07qgbbpz2jn5t","judgmentIndices":[3,1,0,2],"questionScores":[2424,2384,10,null,2402,null,32,21,2390,null,null,39],"questionIndices":[9,34,42,16,32,49,1,47,46,25,31,2],"responseType":"finish","internal_node_id":"0.0-1.0","time_elapsed":56681,"trial_index":1,"trial_type":"instructions","rt":12405,"view_history":"[{\"page_index\":0,\"viewing_time\":12404}]"},{"participantID":"4o3k9a6ltyzaapxwoeo07qgbbpz2jn5t","judgmentIndices":[3,1,0,2],"questionScores":[2424,2384,10,null,2402,null,32,21,2390,null,null,39],"questionIndices":[9,34,42,16,32,49,1,47,46,25,31,2],"responseType":"finish","internal_node_id":"0.0-2.0-0.0","time_elapsed":77449,"trial_index":2,"trial_type":"survey-likert","responses":"{\"Q0\":\"0\",\"Q1\":\"0\",\"Q2\":\"1\",\"Q3\":\"1\"}","rt":19757},{"participantID":"4o3k9a6ltyzaapxwoeo07qgbbpz2jn5t","judgmentIndices":[3,1,0,2],"questionScores":[2424,2384,10,null,2402,null,32,21,2390,null,null,39],"questionIndices":[9,34,42,16,32,49,1,47,46,25,31,2],"responseType":"finish","internal_node_id":"0.0-2.0-1.0","time_elapsed":96499,"trial_index":3,"trial_type":"survey-likert","responses":"{\"Q0\":\"3\",\"Q1\":\"0\",\"Q2\":\"6\",\"Q3\":\"6\"}","rt":18040},{"participantID":"4o3k9a6ltyzaapxwoeo07qgbbpz2jn5t","judgmentIndices":[3,1,0,2],"questionScores":[2424,2384,10,null,2402,null,32,21,2390,null,null,39],"questionIndices":[9,34,42,16,32,49,1,47,46,25,31,2],"responseType":"finish","internal_node_id":"0.0-2.0-2.0","time_elapsed":132884,"trial_index":4,"trial_type":"survey-likert","responses":"{\"Q0\":\"0\",\"Q1\":\"0\",\"Q2\":\"3\",\"Q3\":\"4\"}","rt":35377},{"participantID":"4o3k9a6ltyzaapxwoeo07qgbbpz2jn5t","judgmentIndices":[3,1,0,2],"questionScores":[2424,2384,10,null,2402,null,32,21,2390,null,null,39],"questionIndices":[9,34,42,16,32,49,1,47,46,25,31,2],"responseType":"finish","internal_node_id":"0.0-2.0-3.0","time_elapsed":146379,"trial_index":5,"trial_type":"survey-likert","responses":"{\"Q0\":\"0\",\"Q1\":\"0\",\"Q2\":\"0\",\"Q3\":\"0\"}","rt":12488},{"participantID":"4o3k9a6ltyzaapxwoeo07qgbbpz2jn5t","judgmentIndices":[3,1,0,2],"questionScores":[2424,2384,10,null,2402,null,32,21,2390,null,null,39],"questionIndices":[9,34,42,16,32,49,1,47,46,25,31,2],"responseType":"finish","internal_node_id":"0.0-2.0-4.0","time_elapsed":158732,"trial_index":6,"trial_type":"survey-likert","responses":"{\"Q0\":\"2\",\"Q1\":\"0\",\"Q2\":\"1\",\"Q3\":\"2\"}","rt":11345},{"participantID":"4o3k9a6ltyzaapxwoeo07qgbbpz2jn5t","judgmentIndices":[3,1,0,2],"questionScores":[2424,2384,10,null,2402,null,32,21,2390,null,null,39],"questionIndices":[9,34,42,16,32,49,1,47,46,25,31,2],"responseType":"finish","internal_node_id":"0.0-2.0-5.0","time_elapsed":199536,"trial_index":7,"trial_type":"survey-likert","responses":"{\"Q0\":\"0\",\"Q1\":\"0\",\"Q2\":\"6\",\"Q3\":\"0\"}","rt":39796},{"participantID":"4o3k9a6ltyzaapxwoeo07qgbbpz2jn5t","judgmentIndices":[3,1,0,2],"questionScores":[2424,2384,10,null,2402,null,32,21,2390,null,null,39],"questionIndices":[9,34,42,16,32,49,1,47,46,25,31,2],"responseType":"finish","internal_node_id":"0.0-3.0","time_elapsed":254307,"trial_index":8,"trial_type":"survey-likert","responses":"{\"Q0\":\"0\",\"Q1\":\"0\",\"Q2\":\"6\",\"Q3\":\"0\",\"Q4\":\"6\"}","rt":53761},{"participantID":"4o3k9a6ltyzaapxwoeo07qgbbpz2jn5t","judgmentIndices":[3,1,0,2],"questionScores":[2424,2384,10,null,2402,null,32,21,2390,null,null,39],"questionIndices":[9,34,42,16,32,49,1,47,46,25,31,2],"responseType":"finish","internal_node_id":"0.0-4.0-0.0","time_elapsed":271402,"trial_index":9,"trial_type":"survey-likert","responses":"{\"Q0\":\"3\",\"Q1\":\"0\",\"Q2\":\"1\",\"Q3\":\"3\"}","rt":16088},{"participantID":"4o3k9a6ltyzaapxwoeo07qgbbpz2jn5t","judgmentIndices":[3,1,0,2],"questionScores":[2424,2384,10,null,2402,null,32,21,2390,null,null,39],"questionIndices":[9,34,42,16,32,49,1,47,46,25,31,2],"responseType":"finish","internal_node_id":"0.0-4.0-1.0","time_elapsed":286112,"trial_index":10,"trial_type":"survey-likert","responses":"{\"Q0\":\"0\",\"Q1\":\"1\",\"Q2\":\"0\",\"Q3\":\"0\"}","rt":13703},{"participantID":"4o3k9a6ltyzaapxwoeo07qgbbpz2jn5t","judgmentIndices":[3,1,0,2],"questionScores":[2424,2384,10,null,2402,null,32,21,2390,null,null,39],"questionIndices":[9,34,42,16,32,49,1,47,46,25,31,2],"responseType":"finish","internal_node_id":"0.0-4.0-2.0","time_elapsed":303104,"trial_index":11,"trial_type":"survey-likert","responses":"{\"Q0\":\"1\",\"Q1\":\"0\",\"Q2\":\"0\",\"Q3\":\"3\"}","rt":15985},{"participantID":"4o3k9a6ltyzaapxwoeo07qgbbpz2jn5t","judgmentIndices":[3,1,0,2],"questionScores":[2424,2384,10,null,2402,null,32,21,2390,null,null,39],"questionIndices":[9,34,42,16,32,49,1,47,46,25,31,2],"responseType":"finish","internal_node_id":"0.0-4.0-3.0","time_elapsed":318695,"trial_index":12,"trial_type":"survey-likert","responses":"{\"Q0\":\"0\",\"Q1\":\"0\",\"Q2\":\"4\",\"Q3\":\"0\"}","rt":14585},{"participantID":"4o3k9a6ltyzaapxwoeo07qgbbpz2jn5t","judgmentIndices":[3,1,0,2],"questionScores":[2424,2384,10,null,2402,null,32,21,2390,null,null,39],"questionIndices":[9,34,42,16,32,49,1,47,46,25,31,2],"responseType":"finish","internal_node_id":"0.0-4.0-4.0","time_elapsed":340069,"trial_index":13,"trial_type":"survey-likert","responses":"{\"Q0\":\"1\",\"Q1\":\"0\",\"Q2\":\"2\",\"Q3\":\"3\"}","rt":20367}],"__v":0}
{"_id":{"$oid":"5c8ff193201ca70004c2bc58"},"data":[{"participantID":"czcncwy2afrlgytdxkbk18jgg822u3v3","judgmentIndices":[0,1,2,3],"questionScores":[null,27,30,2411,2400,null,20,27,2415,null,null,2400],"questionIndices":[13,31,43,21,25,46,5,2,18,10,38,37],"responseType":"finish","internal_node_id":"0.0-0.0","time_elapsed":40976,"trial_index":0,"trial_type":"survey-multi-choice","responses":"{\"Q0\":\"I consent to participate\"}","rt":40958},{"participantID":"czcncwy2afrlgytdxkbk18jgg822u3v3","judgmentIndices":[0,1,2,3],"questionScores":[null,27,30,2411,2400,null,20,27,2415,null,null,2400],"questionIndices":[13,31,43,21,25,46,5,2,18,10,38,37],"responseType":"finish","internal_node_id":"0.0-1.0","time_elapsed":76522,"trial_index":1,"trial_type":"instructions","rt":34544,"view_history":"[{\"page_index\":0,\"viewing_time\":34544}]"},{"participantID":"czcncwy2afrlgytdxkbk18jgg822u3v3","judgmentIndices":[0,1,2,3],"questionScores":[null,27,30,2411,2400,null,20,27,2415,null,null,2400],"questionIndices":[13,31,43,21,25,46,5,2,18,10,38,37],"responseType":"finish","internal_node_id":"0.0-2.0-0.0","time_elapsed":126636,"trial_index":2,"trial_type":"survey-likert","responses":"{\"Q0\":\"3\",\"Q1\":\"0\",\"Q2\":\"0\",\"Q3\":\"1\"}","rt":49108},{"participantID":"czcncwy2afrlgytdxkbk18jgg822u3v3","judgmentIndices":[0,1,2,3],"questionScores":[null,27,30,2411,2400,null,20,27,2415,null,null,2400],"questionIndices":[13,31,43,21,25,46,5,2,18,10,38,37],"responseType":"finish","internal_node_id":"0.0-2.0-1.0","time_elapsed":160555,"trial_index":3,"trial_type":"survey-likert","responses":"{\"Q0\":\"4\",\"Q1\":\"0\",\"Q2\":\"5\",\"Q3\":\"5\"}","rt":32914},{"participantID":"czcncwy2afrlgytdxkbk18jgg822u3v3","judgmentIndices":[0,1,2,3],"questionScores":[null,27,30,2411,2400,null,20,27,2415,null,null,2400],"questionIndices":[13,31,43,21,25,46,5,2,18,10,38,37],"responseType":"finish","internal_node_id":"0.0-2.0-2.0","time_elapsed":183148,"trial_index":4,"trial_type":"survey-likert","responses":"{\"Q0\":\"6\",\"Q1\":\"0\",\"Q2\":\"6\",\"Q3\":\"6\"}","rt":21588},{"participantID":"czcncwy2afrlgytdxkbk18jgg822u3v3","judgmentIndices":[0,1,2,3],"questionScores":[null,27,30,2411,2400,null,20,27,2415,null,null,2400],"questionIndices":[13,31,43,21,25,46,5,2,18,10,38,37],"responseType":"finish","internal_node_id":"0.0-2.0-3.0","time_elapsed":208684,"trial_index":5,"trial_type":"survey-likert","responses":"{\"Q0\":\"6\",\"Q1\":\"0\",\"Q2\":\"6\",\"Q3\":\"6\"}","rt":24530},{"participantID":"czcncwy2afrlgytdxkbk18jgg822u3v3","judgmentIndices":[0,1,2,3],"questionScores":[null,27,30,2411,2400,null,20,27,2415,null,null,2400],"questionIndices":[13,31,43,21,25,46,5,2,18,10,38,37],"responseType":"finish","internal_node_id":"0.0-2.0-4.0","time_elapsed":221356,"trial_index":6,"trial_type":"survey-likert","responses":"{\"Q0\":\"5\",\"Q1\":\"0\",\"Q2\":\"5\",\"Q3\":\"6\"}","rt":11666},{"participantID":"czcncwy2afrlgytdxkbk18jgg822u3v3","judgmentIndices":[0,1,2,3],"questionScores":[null,27,30,2411,2400,null,20,27,2415,null,null,2400],"questionIndices":[13,31,43,21,25,46,5,2,18,10,38,37],"responseType":"finish","internal_node_id":"0.0-2.0-5.0","time_elapsed":236772,"trial_index":7,"trial_type":"survey-likert","responses":"{\"Q0\":\"6\",\"Q1\":\"0\",\"Q2\":\"5\",\"Q3\":\"6\"}","rt":14411},{"participantID":"czcncwy2afrlgytdxkbk18jgg822u3v3","judgmentIndices":[0,1,2,3],"questionScores":[null,27,30,2411,2400,null,20,27,2415,null,null,2400],"questionIndices":[13,31,43,21,25,46,5,2,18,10,38,37],"responseType":"finish","internal_node_id":"0.0-3.0","time_elapsed":264620,"trial_index":8,"trial_type":"survey-likert","responses":"{\"Q0\":\"3\",\"Q1\":\"0\",\"Q2\":\"2\",\"Q3\":\"3\",\"Q4\":\"6\"}","rt":26843},{"participantID":"czcncwy2afrlgytdxkbk18jgg822u3v3","judgmentIndices":[0,1,2,3],"questionScores":[null,27,30,2411,2400,null,20,27,2415,null,null,2400],"questionIndices":[13,31,43,21,25,46,5,2,18,10,38,37],"responseType":"finish","internal_node_id":"0.0-4.0-0.0","time_elapsed":284587,"trial_index":9,"trial_type":"survey-likert","responses":"{\"Q0\":\"6\",\"Q1\":\"0\",\"Q2\":\"5\",\"Q3\":\"6\"}","rt":18961},{"participantID":"czcncwy2afrlgytdxkbk18jgg822u3v3","judgmentIndices":[0,1,2,3],"questionScores":[null,27,30,2411,2400,null,20,27,2415,null,null,2400],"questionIndices":[13,31,43,21,25,46,5,2,18,10,38,37],"responseType":"finish","internal_node_id":"0.0-4.0-1.0","time_elapsed":297331,"trial_index":10,"trial_type":"survey-likert","responses":"{\"Q0\":\"6\",\"Q1\":\"0\",\"Q2\":\"6\",\"Q3\":\"6\"}","rt":11738},{"participantID":"czcncwy2afrlgytdxkbk18jgg822u3v3","judgmentIndices":[0,1,2,3],"questionScores":[null,27,30,2411,2400,null,20,27,2415,null,null,2400],"questionIndices":[13,31,43,21,25,46,5,2,18,10,38,37],"responseType":"finish","internal_node_id":"0.0-4.0-2.0","time_elapsed":313475,"trial_index":11,"trial_type":"survey-likert","responses":"{\"Q0\":\"3\",\"Q1\":\"0\",\"Q2\":\"1\",\"Q3\":\"2\"}","rt":15139},{"participantID":"czcncwy2afrlgytdxkbk18jgg822u3v3","judgmentIndices":[0,1,2,3],"questionScores":[null,27,30,2411,2400,null,20,27,2415,null,null,2400],"questionIndices":[13,31,43,21,25,46,5,2,18,10,38,37],"responseType":"finish","internal_node_id":"0.0-4.0-3.0","time_elapsed":331244,"trial_index":12,"trial_type":"survey-likert","responses":"{\"Q0\":\"6\",\"Q1\":\"0\",\"Q2\":\"5\",\"Q3\":\"6\"}","rt":16763},{"participantID":"czcncwy2afrlgytdxkbk18jgg822u3v3","judgmentIndices":[0,1,2,3],"questionScores":[null,27,30,2411,2400,null,20,27,2415,null,null,2400],"questionIndices":[13,31,43,21,25,46,5,2,18,10,38,37],"responseType":"finish","internal_node_id":"0.0-4.0-4.0","time_elapsed":357244,"trial_index":13,"trial_type":"survey-likert","responses":"{\"Q0\":\"5\",\"Q1\":\"0\",\"Q2\":\"5\",\"Q3\":\"6\"}","rt":24994}],"__v":0}
{"_id":{"$oid":"5c8ff19a201ca70004c2bc59"},"data":[{"participantID":"muzov2fev2lfz8lz94spzyxc0behc3e8","judgmentIndices":[2,1,3,0],"questionScores":[12,2405,2404,30,13,29,2409,null,null,2397,null,null],"questionIndices":[47,48,27,34,23,28,46,6,13,2,24,8],"responseType":"finish","internal_node_id":"0.0-0.0","time_elapsed":5633,"trial_index":0,"trial_type":"survey-multi-choice","responses":"{\"Q0\":\"I consent to participate\"}","rt":5617},{"participantID":"muzov2fev2lfz8lz94spzyxc0behc3e8","judgmentIndices":[2,1,3,0],"questionScores":[12,2405,2404,30,13,29,2409,null,null,2397,null,null],"questionIndices":[47,48,27,34,23,28,46,6,13,2,24,8],"responseType":"finish","internal_node_id":"0.0-1.0","time_elapsed":18372,"trial_index":1,"trial_type":"instructions","rt":11738,"view_history":"[{\"page_index\":0,\"viewing_time\":11737}]"},{"participantID":"muzov2fev2lfz8lz94spzyxc0behc3e8","judgmentIndices":[2,1,3,0],"questionScores":[12,2405,2404,30,13,29,2409,null,null,2397,null,null],"questionIndices":[47,48,27,34,23,28,46,6,13,2,24,8],"responseType":"finish","internal_node_id":"0.0-2.0-0.0","time_elapsed":37541,"trial_index":2,"trial_type":"survey-likert","responses":"{\"Q0\":\"6\",\"Q1\":\"3\",\"Q2\":\"0\",\"Q3\":\"1\"}","rt":18161},{"participantID":"muzov2fev2lfz8lz94spzyxc0behc3e8","judgmentIndices":[2,1,3,0],"questionScores":[12,2405,2404,30,13,29,2409,null,null,2397,null,null],"questionIndices":[47,48,27,34,23,28,46,6,13,2,24,8],"responseType":"finish","internal_node_id":"0.0-2.0-1.0","time_elapsed":52173,"trial_index":3,"trial_type":"survey-likert","responses":"{\"Q0\":\"3\",\"Q1\":\"3\",\"Q2\":\"1\",\"Q3\":\"1\"}","rt":13626},{"participantID":"muzov2fev2lfz8lz94spzyxc0behc3e8","judgmentIndices":[2,1,3,0],"questionScores":[12,2405,2404,30,13,29,2409,null,null,2397,null,null],"questionIndices":[47,48,27,34,23,28,46,6,13,2,24,8],"responseType":"finish","internal_node_id":"0.0-2.0-2.0","time_elapsed":63929,"trial_index":4,"trial_type":"survey-likert","responses":"{\"Q0\":\"3\",\"Q1\":\"3\",\"Q2\":\"1\",\"Q3\":\"2\"}","rt":10752},{"participantID":"muzov2fev2lfz8lz94spzyxc0behc3e8","judgmentIndices":[2,1,3,0],"questionScores":[12,2405,2404,30,13,29,2409,null,null,2397,null,null],"questionIndices":[47,48,27,34,23,28,46,6,13,2,24,8],"responseType":"finish","internal_node_id":"0.0-2.0-3.0","time_elapsed":77519,"trial_index":5,"trial_type":"survey-likert","responses":"{\"Q0\":\"5\",\"Q1\":\"1\",\"Q2\":\"2\",\"Q3\":\"3\"}","rt":12581},{"participantID":"muzov2fev2lfz8lz94spzyxc0behc3e8","judgmentIndices":[2,1,3,0],"questionScores":[12,2405,2404,30,13,29,2409,null,null,2397,null,null],"questionIndices":[47,48,27,34,23,28,46,6,13,2,24,8],"responseType":"finish","internal_node_id":"0.0-2.0-4.0","time_elapsed":86429,"trial_index":6,"trial_type":"survey-likert","responses":"{\"Q0\":\"1\",\"Q1\":\"3\",\"Q2\":\"0\",\"Q3\":\"0\"}","rt":7902},{"participantID":"muzov2fev2lfz8lz94spzyxc0behc3e8","judgmentIndices":[2,1,3,0],"questionScores":[12,2405,2404,30,13,29,2409,null,null,2397,null,null],"questionIndices":[47,48,27,34,23,28,46,6,13,2,24,8],"responseType":"finish","internal_node_id":"0.0-2.0-5.0","time_elapsed":95710,"trial_index":7,"trial_type":"survey-likert","responses":"{\"Q0\":\"0\",\"Q1\":\"5\",\"Q2\":\"0\",\"Q3\":\"0\"}","rt":8277},{"participantID":"muzov2fev2lfz8lz94spzyxc0behc3e8","judgmentIndices":[2,1,3,0],"questionScores":[12,2405,2404,30,13,29,2409,null,null,2397,null,null],"questionIndices":[47,48,27,34,23,28,46,6,13,2,24,8],"responseType":"finish","internal_node_id":"0.0-3.0","time_elapsed":110697,"trial_index":8,"trial_type":"survey-likert","responses":"{\"Q0\":\"0\",\"Q1\":\"4\",\"Q2\":\"0\",\"Q3\":\"0\",\"Q4\":\"6\"}","rt":13979},{"participantID":"muzov2fev2lfz8lz94spzyxc0behc3e8","judgmentIndices":[2,1,3,0],"questionScores":[12,2405,2404,30,13,29,2409,null,null,2397,null,null],"questionIndices":[47,48,27,34,23,28,46,6,13,2,24,8],"responseType":"finish","internal_node_id":"0.0-4.0-0.0","time_elapsed":121754,"trial_index":9,"trial_type":"survey-likert","responses":"{\"Q0\":\"6\",\"Q1\":\"2\",\"Q2\":\"1\",\"Q3\":\"3\"}","rt":10050},{"participantID":"muzov2fev2lfz8lz94spzyxc0behc3e8","judgmentIndices":[2,1,3,0],"questionScores":[12,2405,2404,30,13,29,2409,null,null,2397,null,null],"questionIndices":[47,48,27,34,23,28,46,6,13,2,24,8],"responseType":"finish","internal_node_id":"0.0-4.0-1.0","time_elapsed":132925,"trial_index":10,"trial_type":"survey-likert","responses":"{\"Q0\":\"0\",\"Q1\":\"3\",\"Q2\":\"0\",\"Q3\":\"0\"}","rt":10163},{"participantID":"muzov2fev2lfz8lz94spzyxc0behc3e8","judgmentIndices":[2,1,3,0],"questionScores":[12,2405,2404,30,13,29,2409,null,null,2397,null,null],"questionIndices":[47,48,27,34,23,28,46,6,13,2,24,8],"responseType":"finish","internal_node_id":"0.0-4.0-2.0","time_elapsed":143477,"trial_index":11,"trial_type":"survey-likert","responses":"{\"Q0\":\"0\",\"Q1\":\"0\",\"Q2\":\"0\",\"Q3\":\"0\"}","rt":9543},{"participantID":"muzov2fev2lfz8lz94spzyxc0behc3e8","judgmentIndices":[2,1,3,0],"questionScores":[12,2405,2404,30,13,29,2409,null,null,2397,null,null],"questionIndices":[47,48,27,34,23,28,46,6,13,2,24,8],"responseType":"finish","internal_node_id":"0.0-4.0-3.0","time_elapsed":165325,"trial_index":12,"trial_type":"survey-likert","responses":"{\"Q0\":\"0\",\"Q1\":\"1\",\"Q2\":\"1\",\"Q3\":\"2\"}","rt":20839},{"participantID":"muzov2fev2lfz8lz94spzyxc0behc3e8","judgmentIndices":[2,1,3,0],"questionScores":[12,2405,2404,30,13,29,2409,null,null,2397,null,null],"questionIndices":[47,48,27,34,23,28,46,6,13,2,24,8],"responseType":"finish","internal_node_id":"0.0-4.0-4.0","time_elapsed":175371,"trial_index":13,"trial_type":"survey-likert","responses":"{\"Q0\":\"0\",\"Q1\":\"6\",\"Q2\":\"0\",\"Q3\":\"0\"}","rt":9039}],"__v":0}
{"_id":{"$oid":"5c8ff1b9201ca70004c2bc5a"},"data":[{"participantID":"wvx4xs11lusq9v8xfrqad1n6rqz7kq6w","judgmentIndices":[1,2,0,3],"questionScores":[null,null,2389,null,2407,6,50,2412,null,21,13,2405],"questionIndices":[24,17,32,25,26,0,41,19,5,30,35,6],"responseType":"finish","internal_node_id":"0.0-0.0","time_elapsed":177592,"trial_index":0,"trial_type":"survey-multi-choice","responses":"{\"Q0\":\"I consent to participate\"}","rt":177580},{"participantID":"wvx4xs11lusq9v8xfrqad1n6rqz7kq6w","judgmentIndices":[1,2,0,3],"questionScores":[null,null,2389,null,2407,6,50,2412,null,21,13,2405],"questionIndices":[24,17,32,25,26,0,41,19,5,30,35,6],"responseType":"finish","internal_node_id":"0.0-1.0","time_elapsed":225601,"trial_index":1,"trial_type":"instructions","rt":46997,"view_history":"[{\"page_index\":0,\"viewing_time\":46997}]"},{"participantID":"wvx4xs11lusq9v8xfrqad1n6rqz7kq6w","judgmentIndices":[1,2,0,3],"questionScores":[null,null,2389,null,2407,6,50,2412,null,21,13,2405],"questionIndices":[24,17,32,25,26,0,41,19,5,30,35,6],"responseType":"finish","internal_node_id":"0.0-2.0-0.0","time_elapsed":247402,"trial_index":2,"trial_type":"survey-likert","responses":"{\"Q0\":\"0\",\"Q1\":\"2\",\"Q2\":\"6\",\"Q3\":\"2\"}","rt":20792},{"participantID":"wvx4xs11lusq9v8xfrqad1n6rqz7kq6w","judgmentIndices":[1,2,0,3],"questionScores":[null,null,2389,null,2407,6,50,2412,null,21,13,2405],"questionIndices":[24,17,32,25,26,0,41,19,5,30,35,6],"responseType":"finish","internal_node_id":"0.0-2.0-1.0","time_elapsed":258842,"trial_index":3,"trial_type":"survey-likert","responses":"{\"Q0\":\"1\",\"Q1\":\"6\",\"Q2\":\"6\",\"Q3\":\"5\"}","rt":10435},{"participantID":"wvx4xs11lusq9v8xfrqad1n6rqz7kq6w","judgmentIndices":[1,2,0,3],"questionScores":[null,null,2389,null,2407,6,50,2412,null,21,13,2405],"questionIndices":[24,17,32,25,26,0,41,19,5,30,35,6],"responseType":"finish","internal_node_id":"0.0-2.0-2.0","time_elapsed":270824,"trial_index":4,"trial_type":"survey-likert","responses":"{\"Q0\":\"1\",\"Q1\":\"3\",\"Q2\":\"3\",\"Q3\":\"2\"}","rt":10978},{"participantID":"wvx4xs11lusq9v8xfrqad1n6rqz7kq6w","judgmentIndices":[1,2,0,3],"questionScores":[null,null,2389,null,2407,6,50,2412,null,21,13,2405],"questionIndices":[24,17,32,25,26,0,41,19,5,30,35,6],"responseType":"finish","internal_node_id":"0.0-2.0-3.0","time_elapsed":282905,"trial_index":5,"trial_type":"survey-likert","responses":"{\"Q0\":\"3\",\"Q1\":\"4\",\"Q2\":\"3\",\"Q3\":\"2\"}","rt":11076},{"participantID":"wvx4xs11lusq9v8xfrqad1n6rqz7kq6w","judgmentIndices":[1,2,0,3],"questionScores":[null,null,2389,null,2407,6,50,2412,null,21,13,2405],"questionIndices":[24,17,32,25,26,0,41,19,5,30,35,6],"responseType":"finish","internal_node_id":"0.0-2.0-4.0","time_elapsed":293879,"trial_index":6,"trial_type":"survey-likert","responses":"{\"Q0\":\"0\",\"Q1\":\"2\",\"Q2\":\"2\",\"Q3\":\"1\"}","rt":9969},{"participantID":"wvx4xs11lusq9v8xfrqad1n6rqz7kq6w","judgmentIndices":[1,2,0,3],"questionScores":[null,null,2389,null,2407,6,50,2412,null,21,13,2405],"questionIndices":[24,17,32,25,26,0,41,19,5,30,35,6],"responseType":"finish","internal_node_id":"0.0-2.0-5.0","time_elapsed":303147,"trial_index":7,"trial_type":"survey-likert","responses":"{\"Q0\":\"1\",\"Q1\":\"2\",\"Q2\":\"2\",\"Q3\":\"2\"}","rt":8263},{"participantID":"wvx4xs11lusq9v8xfrqad1n6rqz7kq6w","judgmentIndices":[1,2,0,3],"questionScores":[null,null,2389,null,2407,6,50,2412,null,21,13,2405],"questionIndices":[24,17,32,25,26,0,41,19,5,30,35,6],"responseType":"finish","internal_node_id":"0.0-3.0","time_elapsed":318052,"trial_index":8,"trial_type":"survey-likert","responses":"{\"Q0\":\"0\",\"Q1\":\"2\",\"Q2\":\"3\",\"Q3\":\"3\",\"Q4\":\"6\"}","rt":13900},{"participantID":"wvx4xs11lusq9v8xfrqad1n6rqz7kq6w","judgmentIndices":[1,2,0,3],"questionScores":[null,null,2389,null,2407,6,50,2412,null,21,13,2405],"questionIndices":[24,17,32,25,26,0,41,19,5,30,35,6],"responseType":"finish","internal_node_id":"0.0-4.0-0.0","time_elapsed":339183,"trial_index":9,"trial_type":"survey-likert","responses":"{\"Q0\":\"1\",\"Q1\":\"2\",\"Q2\":\"2\",\"Q3\":\"2\"}","rt":20127},{"participantID":"wvx4xs11lusq9v8xfrqad1n6rqz7kq6w","judgmentIndices":[1,2,0,3],"questionScores":[null,null,2389,null,2407,6,50,2412,null,21,13,2405],"questionIndices":[24,17,32,25,26,0,41,19,5,30,35,6],"responseType":"finish","internal_node_id":"0.0-4.0-1.0","time_elapsed":362541,"trial_index":10,"trial_type":"survey-likert","responses":"{\"Q0\":\"1\",\"Q1\":\"3\",\"Q2\":\"4\",\"Q3\":\"3\"}","rt":22354},{"participantID":"wvx4xs11lusq9v8xfrqad1n6rqz7kq6w","judgmentIndices":[1,2,0,3],"questionScores":[null,null,2389,null,2407,6,50,2412,null,21,13,2405],"questionIndices":[24,17,32,25,26,0,41,19,5,30,35,6],"responseType":"finish","internal_node_id":"0.0-4.0-2.0","time_elapsed":379193,"trial_index":11,"trial_type":"survey-likert","responses":"{\"Q0\":\"0\",\"Q1\":\"3\",\"Q2\":\"4\",\"Q3\":\"3\"}","rt":15648},{"participantID":"wvx4xs11lusq9v8xfrqad1n6rqz7kq6w","judgmentIndices":[1,2,0,3],"questionScores":[null,null,2389,null,2407,6,50,2412,null,21,13,2405],"questionIndices":[24,17,32,25,26,0,41,19,5,30,35,6],"responseType":"finish","internal_node_id":"0.0-4.0-3.0","time_elapsed":396303,"trial_index":12,"trial_type":"survey-likert","responses":"{\"Q0\":\"2\",\"Q1\":\"3\",\"Q2\":\"3\",\"Q3\":\"3\"}","rt":16104},{"participantID":"wvx4xs11lusq9v8xfrqad1n6rqz7kq6w","judgmentIndices":[1,2,0,3],"questionScores":[null,null,2389,null,2407,6,50,2412,null,21,13,2405],"questionIndices":[24,17,32,25,26,0,41,19,5,30,35,6],"responseType":"finish","internal_node_id":"0.0-4.0-4.0","time_elapsed":418160,"trial_index":13,"trial_type":"survey-likert","responses":"{\"Q0\":\"0\",\"Q1\":\"4\",\"Q2\":\"5\",\"Q3\":\"5\"}","rt":20853}],"__v":0}
