{"_id":{"$oid":"5ca0059812c8600004840160"},"data":[{"participantID":"hu18z57qr2ja4v6jh24c57fk0b5ftdqs","judgmentIndices":[1,3,2,0],"questionScores":[22,2389,2407,null,null,2421,2395,27,null,null,15,32],"questionIndices":[35,22,17,34,4,49,36,27,19,33,20,3],"responseType":"finish","internal_node_id":"0.0-0.0","time_elapsed":3562,"trial_index":0,"trial_type":"survey-multi-choice","responses":"{\"Q0\":\"I consent to participate\"}","rt":3552},{"participantID":"hu18z57qr2ja4v6jh24c57fk0b5ftdqs","judgmentIndices":[1,3,2,0],"questionScores":[22,2389,2407,null,null,2421,2395,27,null,null,15,32],"questionIndices":[35,22,17,34,4,49,36,27,19,33,20,3],"responseType":"finish","internal_node_id":"0.0-1.0","time_elapsed":12005,"trial_index":1,"trial_type":"instructions","rt":7441,"view_history":"[{\"page_index\":0,\"viewing_time\":7441}]"},{"participantID":"hu18z57qr2ja4v6jh24c57fk0b5ftdqs","judgmentIndices":[1,3,2,0],"questionScores":[22,2389,2407,null,null,2421,2395,27,null,null,15,32],"questionIndices":[35,22,17,34,4,49,36,27,19,33,20,3],"responseType":"finish","internal_node_id":"0.0-2.0-0.0","time_elapsed":32566,"trial_index":2,"trial_type":"survey-likert","responses":"{\"Q0\":\"1\",\"Q1\":\"1\",\"Q2\":\"0\",\"Q3\":\"5\"}","rt":19556},{"participantID":"hu18z57qr2ja4v6jh24c57fk0b5ftdqs","judgmentIndices":[1,3,2,0],"questionScores":[22,2389,2407,null,null,2421,2395,27,null,null,15,32],"questionIndices":[35,22,17,34,4,49,36,27,19,33,20,3],"responseType":"finish","internal_node_id":"0.0-2.0-1.0","time_elapsed":50033,"trial_index":3,"trial_type":"survey-likert","responses":"{\"Q0\":\"5\",\"Q1\":\"3\",\"Q2\":\"1\",\"Q3\":\"4\"}","rt":16462},{"participantID":"hu18z57qr2ja4v6jh24c57fk0b5ftdqs","judgmentIndices":[1,3,2,0],"questionScores":[22,2389,2407,null,null,2421,2395,27,null,null,15,32],"questionIndices":[35,22,17,34,4,49,36,27,19,33,20,3],"responseType":"finish","internal_node_id":"0.0-2.0-2.0","time_elapsed":62419,"trial_index":4,"trial_type":"survey-likert","responses":"{\"Q0\":\"1\",\"Q1\":\"6\",\"Q2\":\"5\",\"Q3\":\"5\"}","rt":11378},{"participantID":"hu18z57qr2ja4v6jh24c57fk0b5ftdqs","judgmentIndices":[1,3,2,0],"questionScores":[22,2389,2407,null,null,2421,2395,27,null,null,15,32],"questionIndices":[35,22,17,34,4,49,36,27,19,33,20,3],"responseType":"finish","internal_node_id":"0.0-2.0-3.0","time_elapsed":75435,"trial_index":5,"trial_type":"survey-likert","responses":"{\"Q0\":\"5\",\"Q1\":\"2\",\"Q2\":\"4\",\"Q3\":\"3\"}","rt":12011},{"participantID":"hu18z57qr2ja4v6jh24c57fk0b5ftdqs","judgmentIndices":[1,3,2,0],"questionScores":[22,2389,2407,null,null,2421,2395,27,null,null,15,32],"questionIndices":[35,22,17,34,4,49,36,27,19,33,20,3],"responseType":"finish","internal_node_id":"0.0-2.0-4.0","time_elapsed":89951,"trial_index":6,"trial_type":"survey-likert","responses":"{\"Q0\":\"1\",\"Q1\":\"3\",\"Q2\":\"1\",\"Q3\":\"4\"}","rt":13510},{"participantID":"hu18z57qr2ja4v6jh24c57fk0b5ftdqs","judgmentIndices":[1,3,2,0],"questionScores":[22,2389,2407,null,null,2421,2395,27,null,null,15,32],"questionIndices":[35,22,17,34,4,49,36,27,19,33,20,3],"responseType":"finish","internal_node_id":"0.0-2.0-5.0","time_elapsed":109375,"trial_index":7,"trial_type":"survey-likert","responses":"{\"Q0\":\"0\",\"Q1\":\"2\",\"Q2\":\"5\",\"Q3\":\"4\"}","rt":17497},{"participantID":"hu18z57qr2ja4v6jh24c57fk0b5ftdqs","judgmentIndices":[1,3,2,0],"questionScores":[22,2389,2407,null,null,2421,2395,27,null,null,15,32],"questionIndices":[35,22,17,34,4,49,36,27,19,33,20,3],"responseType":"finish","internal_node_id":"0.0-3.0","time_elapsed":126417,"trial_index":8,"trial_type":"survey-likert","responses":"{\"Q0\":\"0\",\"Q1\":\"3\",\"Q2\":\"3\",\"Q3\":\"4\",\"Q4\":\"6\"}","rt":16033},{"participantID":"hu18z57qr2ja4v6jh24c57fk0b5ftdqs","judgmentIndices":[1,3,2,0],"questionScores":[22,2389,2407,null,null,2421,2395,27,null,null,15,32],"questionIndices":[35,22,17,34,4,49,36,27,19,33,20,3],"responseType":"finish","internal_node_id":"0.0-4.0-0.0","time_elapsed":139075,"trial_index":9,"trial_type":"survey-likert","responses":"{\"Q0\":\"4\",\"Q1\":\"6\",\"Q2\":\"5\",\"Q3\":\"5\"}","rt":11654},{"participantID":"hu18z57qr2ja4v6jh24c57fk0b5ftdqs","judgmentIndices":[1,3,2,0],"questionScores":[22,2389,2407,null,null,2421,2395,27,null,null,15,32],"questionIndices":[35,22,17,34,4,49,36,27,19,33,20,3],"responseType":"finish","internal_node_id":"0.0-4.0-1.0","time_elapsed":152309,"trial_index":10,"trial_type":"survey-likert","responses":"{\"Q0\":\"1\",\"Q1\":\"2\",\"Q2\":\"1\",\"Q3\":\"4\"}","rt":12231},{"participantID":"hu18z57qr2ja4v6jh24c57fk0b5ftdqs","judgmentIndices":[1,3,2,0],"questionScores":[22,2389,2407,null,null,2421,2395,27,null,null,15,32],"questionIndices":[35,22,17,34,4,49,36,27,19,33,20,3],"responseType":"finish","internal_node_id":"0.0-4.0-2.0","time_elapsed":173957,"trial_index":11,"trial_type":"survey-likert","responses":"{\"Q0\":\"0\",\"Q1\":\"4\",\"Q2\":\"2\",\"Q3\":\"6\"}","rt":20643},{"participantID":"hu18z57qr2ja4v6jh24c57fk0b5ftdqs","judgmentIndices":[1,3,2,0],"questionScores":[22,2389,2407,null,null,2421,2395,27,null,null,15,32],"questionIndices":[35,22,17,34,4,49,36,27,19,33,20,3],"responseType":"finish","internal_node_id":"0.0-4.0-3.0","time_elapsed":193891,"trial_index":12,"trial_type":"survey-likert","responses":"{\"Q0\":\"2\",\"Q1\":\"4\",\"Q2\":\"5\",\"Q3\":\"6\"}","rt":18929},{"participantID":"hu18z57qr2ja4v6jh24c57fk0b5ftdqs","judgmentIndices":[1,3,2,0],"questionScores":[22,2389,2407,null,null,2421,2395,27,null,null,15,32],"questionIndices":[35,22,17,34,4,49,36,27,19,33,20,3],"responseType":"finish","internal_node_id":"0.0-4.0-4.0","time_elapsed":205547,"trial_index":13,"trial_type":"survey-likert","responses":"{\"Q0\":\"5\",\"Q1\":\"3\",\"Q2\":\"2\",\"Q3\":\"4\"}","rt":10649}],"__v":0}
{"_id":{"$oid":"5ca005e512c8600004840161"},"data":[{"participantID":"xev0ec5nfz6bfwq1h4puuscnk0eg8ck8","judgmentIndices":[3,1,2,0],"questionScores":[40,null,2392,null,null,28,2407,null,31,2424,22,2416],"questionIndices":[18,32,6,26,8,47,19,25,44,11,31,2],"responseType":"finish","internal_node_id":"0.0-0.0","time_elapsed":7493,"trial_index":0,"trial_type":"survey-multi-choice","responses":"{\"Q0\":\"I consent to participate\"}","rt":7436},{"participantID":"xev0ec5nfz6bfwq1h4puuscnk0eg8ck8","judgmentIndices":[3,1,2,0],"questionScores":[40,null,2392,null,null,28,2407,null,31,2424,22,2416],"questionIndices":[18,32,6,26,8,47,19,25,44,11,31,2],"responseType":"finish","internal_node_id":"0.0-1.0","time_elapsed":11028,"trial_index":1,"trial_type":"instructions","rt":2531,"view_history":"[{\"page_index\":0,\"viewing_time\":2530}]"},{"participantID":"xev0ec5nfz6bfwq1h4puuscnk0eg8ck8","judgmentIndices":[3,1,2,0],"questionScores":[40,null,2392,null,null,28,2407,null,31,2424,22,2416],"questionIndices":[18,32,6,26,8,47,19,25,44,11,31,2],"responseType":"finish","internal_node_id":"0.0-2.0-0.0","time_elapsed":24786,"trial_index":2,"trial_type":"survey-likert","responses":"{\"Q0\":\"1\",\"Q1\":\"0\",\"Q2\":\"2\",\"Q3\":\"3\"}","rt":12744},{"participantID":"xev0ec5nfz6bfwq1h4puuscnk0eg8ck8","judgmentIndices":[3,1,2,0],"questionScores":[40,null,2392,null,null,28,2407,null,31,2424,22,2416],"questionIndices":[18,32,6,26,8,47,19,25,44,11,31,2],"responseType":"finish","internal_node_id":"0.0-2.0-1.0","time_elapsed":51515,"trial_index":3,"trial_type":"survey-likert","responses":"{\"Q0\":\"2\",\"Q1\":\"1\",\"Q2\":\"2\",\"Q3\":\"3\"}","rt":25719},{"participantID":"xev0ec5nfz6bfwq1h4puuscnk0eg8ck8","judgmentIndices":[3,1,2,0],"questionScores":[40,null,2392,null,null,28,2407,null,31,2424,22,2416],"questionIndices":[18,32,6,26,8,47,19,25,44,11,31,2],"responseType":"finish","internal_node_id":"0.0-2.0-2.0","time_elapsed":74249,"trial_index":4,"trial_type":"survey-likert","responses":"{\"Q0\":\"3\",\"Q1\":\"0\",\"Q2\":\"4\",\"Q3\":\"4\"}","rt":21723},{"participantID":"xev0ec5nfz6bfwq1h4puuscnk0eg8ck8","judgmentIndices":[3,1,2,0],"questionScores":[40,null,2392,null,null,28,2407,null,31,2424,22,2416],"questionIndices":[18,32,6,26,8,47,19,25,44,11,31,2],"responseType":"finish","internal_node_id":"0.0-2.0-3.0","time_elapsed":84971,"trial_index":5,"trial_type":"survey-likert","responses":"{\"Q0\":\"3\",\"Q1\":\"1\",\"Q2\":\"2\",\"Q3\":\"2\"}","rt":9713},{"participantID":"xev0ec5nfz6bfwq1h4puuscnk0eg8ck8","judgmentIndices":[3,1,2,0],"questionScores":[40,null,2392,null,null,28,2407,null,31,2424,22,2416],"questionIndices":[18,32,6,26,8,47,19,25,44,11,31,2],"responseType":"finish","internal_node_id":"0.0-2.0-4.0","time_elapsed":94062,"trial_index":6,"trial_type":"survey-likert","responses":"{\"Q0\":\"3\",\"Q1\":\"1\",\"Q2\":\"2\",\"Q3\":\"2\"}","rt":8079},{"participantID":"xev0ec5nfz6bfwq1h4puuscnk0eg8ck8","judgmentIndices":[3,1,2,0],"questionScores":[40,null,2392,null,null,28,2407,null,31,2424,22,2416],"questionIndices":[18,32,6,26,8,47,19,25,44,11,31,2],"responseType":"finish","internal_node_id":"0.0-2.0-5.0","time_elapsed":102499,"trial_index":7,"trial_type":"survey-likert","responses":"{\"Q0\":\"2\",\"Q1\":\"1\",\"Q2\":\"1\",\"Q3\":\"2\"}","rt":7429},{"participantID":"xev0ec5nfz6bfwq1h4puuscnk0eg8ck8","judgmentIndices":[3,1,2,0],"questionScores":[40,null,2392,null,null,28,2407,null,31,2424,22,2416],"questionIndices":[18,32,6,26,8,47,19,25,44,11,31,2],"responseType":"finish","internal_node_id":"0.0-3.0","time_elapsed":117341,"trial_index":8,"trial_type":"survey-likert","responses":"{\"Q0\":\"3\",\"Q1\":\"1\",\"Q2\":\"2\",\"Q3\":\"2\",\"Q4\":\"6\"}","rt":13830},{"participantID":"xev0ec5nfz6bfwq1h4puuscnk0eg8ck8","judgmentIndices":[3,1,2,0],"questionScores":[40,null,2392,null,null,28,2407,null,31,2424,22,2416],"questionIndices":[18,32,6,26,8,47,19,25,44,11,31,2],"responseType":"finish","internal_node_id":"0.0-4.0-0.0","time_elapsed":143965,"trial_index":9,"trial_type":"survey-likert","responses":"{\"Q0\":\"4\",\"Q1\":\"3\",\"Q2\":\"3\",\"Q3\":\"3\"}","rt":25615},{"participantID":"xev0ec5nfz6bfwq1h4puuscnk0eg8ck8","judgmentIndices":[3,1,2,0],"questionScores":[40,null,2392,null,null,28,2407,null,31,2424,22,2416],"questionIndices":[18,32,6,26,8,47,19,25,44,11,31,2],"responseType":"finish","internal_node_id":"0.0-4.0-1.0","time_elapsed":152643,"trial_index":10,"trial_type":"survey-likert","responses":"{\"Q0\":\"4\",\"Q1\":\"2\",\"Q2\":\"3\",\"Q3\":\"3\"}","rt":7667},{"participantID":"xev0ec5nfz6bfwq1h4puuscnk0eg8ck8","judgmentIndices":[3,1,2,0],"questionScores":[40,null,2392,null,null,28,2407,null,31,2424,22,2416],"questionIndices":[18,32,6,26,8,47,19,25,44,11,31,2],"responseType":"finish","internal_node_id":"0.0-4.0-2.0","time_elapsed":160974,"trial_index":11,"trial_type":"survey-likert","responses":"{\"Q0\":\"3\",\"Q1\":\"4\",\"Q2\":\"3\",\"Q3\":\"3\"}","rt":7317},{"participantID":"xev0ec5nfz6bfwq1h4puuscnk0eg8ck8","judgmentIndices":[3,1,2,0],"questionScores":[40,null,2392,null,null,28,2407,null,31,2424,22,2416],"questionIndices":[18,32,6,26,8,47,19,25,44,11,31,2],"responseType":"finish","internal_node_id":"0.0-4.0-3.0","time_elapsed":172691,"trial_index":12,"trial_type":"survey-likert","responses":"{\"Q0\":\"2\",\"Q1\":\"0\",\"Q2\":\"3\",\"Q3\":\"3\"}","rt":10707},{"participantID":"xev0ec5nfz6bfwq1h4puuscnk0eg8ck8","judgmentIndices":[3,1,2,0],"questionScores":[40,null,2392,null,null,28,2407,null,31,2424,22,2416],"questionIndices":[18,32,6,26,8,47,19,25,44,11,31,2],"responseType":"finish","internal_node_id":"0.0-4.0-4.0","time_elapsed":185685,"trial_index":13,"trial_type":"survey-likert","responses":"{\"Q0\":\"4\",\"Q1\":\"2\",\"Q2\":\"3\",\"Q3\":\"3\"}","rt":11983}],"__v":0}
{"_id":{"$oid":"5ca0061312c8600004840162"},"data":[{"participantID":"upfop1hxok2r4hynbr5yfwty3q5628wr","judgmentIndices":[1,3,2,0],"questionScores":[28,2401,null,19,16,2409,2414,null,null,2404,null,28],"questionIndices":[2,14,15,10,44,24,1,6,22,40,45,19],"responseType":"finish","internal_node_id":"0.0-0.0","time_elapsed":6534,"trial_index":0,"trial_type":"survey-multi-choice","responses":"{\"Q0\":\"I consent to participate\"}","rt":6528},{"participantID":"upfop1hxok2r4hynbr5yfwty3q5628wr","judgmentIndices":[1,3,2,0],"questionScores":[28,2401,null,19,16,2409,2414,null,null,2404,null,28],"questionIndices":[2,14,15,10,44,24,1,6,22,40,45,19],"responseType":"finish","internal_node_id":"0.0-1.0","time_elapsed":36646,"trial_index":1,"trial_type":"instructions","rt":29110,"view_history":"[{\"page_index\":0,\"viewing_time\":29110}]"},{"participantID":"upfop1hxok2r4hynbr5yfwty3q5628wr","judgmentIndices":[1,3,2,0],"questionScores":[28,2401,null,19,16,2409,2414,null,null,2404,null,28],"questionIndices":[2,14,15,10,44,24,1,6,22,40,45,19],"responseType":"finish","internal_node_id":"0.0-2.0-0.0","time_elapsed":75502,"trial_index":2,"trial_type":"survey-likert","responses":"{\"Q0\":\"0\",\"Q1\":\"2\",\"Q2\":\"5\",\"Q3\":\"5\"}","rt":37853},{"participantID":"upfop1hxok2r4hynbr5yfwty3q5628wr","judgmentIndices":[1,3,2,0],"questionScores":[28,2401,null,19,16,2409,2414,null,null,2404,null,28],"questionIndices":[2,14,15,10,44,24,1,6,22,40,45,19],"responseType":"finish","internal_node_id":"0.0-2.0-1.0","time_elapsed":94125,"trial_index":3,"trial_type":"survey-likert","responses":"{\"Q0\":\"2\",\"Q1\":\"4\",\"Q2\":\"5\",\"Q3\":\"1\"}","rt":17619},{"participantID":"upfop1hxok2r4hynbr5yfwty3q5628wr","judgmentIndices":[1,3,2,0],"questionScores":[28,2401,null,19,16,2409,2414,null,null,2404,null,28],"questionIndices":[2,14,15,10,44,24,1,6,22,40,45,19],"responseType":"finish","internal_node_id":"0.0-2.0-2.0","time_elapsed":120142,"trial_index":4,"trial_type":"survey-likert","responses":"{\"Q0\":\"0\",\"Q1\":\"5\",\"Q2\":\"5\",\"Q3\":\"3\"}","rt":25014},{"participantID":"upfop1hxok2r4hynbr5yfwty3q5628wr","judgmentIndices":[1,3,2,0],"questionScores":[28,2401,null,19,16,2409,2414,null,null,2404,null,28],"questionIndices":[2,14,15,10,44,24,1,6,22,40,45,19],"responseType":"finish","internal_node_id":"0.0-2.0-3.0","time_elapsed":136205,"trial_index":5,"trial_type":"survey-likert","responses":"{\"Q0\":\"2\",\"Q1\":\"3\",\"Q2\":\"1\",\"Q3\":\"5\"}","rt":15059},{"participantID":"upfop1hxok2r4hynbr5yfwty3q5628wr","judgmentIndices":[1,3,2,0],"questionScores":[28,2401,null,19,16,2409,2414,null,null,2404,null,28],"questionIndices":[2,14,15,10,44,24,1,6,22,40,45,19],"responseType":"finish","internal_node_id":"0.0-2.0-4.0","time_elapsed":148969,"trial_index":6,"trial_type":"survey-likert","responses":"{\"Q0\":\"1\",\"Q1\":\"4\",\"Q2\":\"6\",\"Q3\":\"2\"}","rt":11760},{"participantID":"upfop1hxok2r4hynbr5yfwty3q5628wr","judgmentIndices":[1,3,2,0],"questionScores":[28,2401,null,19,16,2409,2414,null,null,2404,null,28],"questionIndices":[2,14,15,10,44,24,1,6,22,40,45,19],"responseType":"finish","internal_node_id":"0.0-2.0-5.0","time_elapsed":172467,"trial_index":7,"trial_type":"survey-likert","responses":"{\"Q0\":\"4\",\"Q1\":\"1\",\"Q2\":\"0\",\"Q3\":\"3\"}","rt":22495},{"participantID":"upfop1hxok2r4hynbr5yfwty3q5628wr","judgmentIndices":[1,3,2,0],"questionScores":[28,2401,null,19,16,2409,2414,null,null,2404,null,28],"questionIndices":[2,14,15,10,44,24,1,6,22,40,45,19],"responseType":"finish","internal_node_id":"0.0-3.0","time_elapsed":195382,"trial_index":8,"trial_type":"survey-likert","responses":"{\"Q0\":\"5\",\"Q1\":\"2\",\"Q2\":\"1\",\"Q3\":\"2\",\"Q4\":\"6\"}","rt":21914},{"participantID":"upfop1hxok2r4hynbr5yfwty3q5628wr","judgmentIndices":[1,3,2,0],"questionScores":[28,2401,null,19,16,2409,2414,null,null,2404,null,28],"questionIndices":[2,14,15,10,44,24,1,6,22,40,45,19],"responseType":"finish","internal_node_id":"0.0-4.0-0.0","time_elapsed":212216,"trial_index":9,"trial_type":"survey-likert","responses":"{\"Q0\":\"4\",\"Q1\":\"4\",\"Q2\":\"6\",\"Q3\":\"3\"}","rt":15831},{"participantID":"upfop1hxok2r4hynbr5yfwty3q5628wr","judgmentIndices":[1,3,2,0],"questionScores":[28,2401,null,19,16,2409,2414,null,null,2404,null,28],"questionIndices":[2,14,15,10,44,24,1,6,22,40,45,19],"responseType":"finish","internal_node_id":"0.0-4.0-1.0","time_elapsed":244636,"trial_index":10,"trial_type":"survey-likert","responses":"{\"Q0\":\"4\",\"Q1\":\"2\",\"Q2\":\"1\",\"Q3\":\"4\"}","rt":31418},{"participantID":"upfop1hxok2r4hynbr5yfwty3q5628wr","judgmentIndices":[1,3,2,0],"questionScores":[28,2401,null,19,16,2409,2414,null,null,2404,null,28],"questionIndices":[2,14,15,10,44,24,1,6,22,40,45,19],"responseType":"finish","internal_node_id":"0.0-4.0-2.0","time_elapsed":258710,"trial_index":11,"trial_type":"survey-likert","responses":"{\"Q0\":\"2\",\"Q1\":\"3\",\"Q2\":\"4\",\"Q3\":\"1\"}","rt":13071},{"participantID":"upfop1hxok2r4hynbr5yfwty3q5628wr","judgmentIndices":[1,3,2,0],"questionScores":[28,2401,null,19,16,2409,2414,null,null,2404,null,28],"questionIndices":[2,14,15,10,44,24,1,6,22,40,45,19],"responseType":"finish","internal_node_id":"0.0-4.0-3.0","time_elapsed":273741,"trial_index":12,"trial_type":"survey-likert","responses":"{\"Q0\":\"2\",\"Q1\":\"1\",\"Q2\":\"1\",\"Q3\":\"4\"}","rt":14026},{"participantID":"upfop1hxok2r4hynbr5yfwty3q5628wr","judgmentIndices":[1,3,2,0],"questionScores":[28,2401,null,19,16,2409,2414,null,null,2404,null,28],"questionIndices":[2,14,15,10,44,24,1,6,22,40,45,19],"responseType":"finish","internal_node_id":"0.0-4.0-4.0","time_elapsed":286772,"trial_index":13,"trial_type":"survey-likert","responses":"{\"Q0\":\"1\",\"Q1\":\"3\",\"Q2\":\"1\",\"Q3\":\"4\"}","rt":12027}],"__v":0}
{"_id":{"$oid":"5ca0062712c8600004840163"},"data":[{"participantID":"goxzca1lx6vlbzmf9la861fhqlmtxlmn","judgmentIndices":[2,0,1,3],"questionScores":[null,32,41,2405,null,2417,18,null,null,2404,21,2398],"questionIndices":[44,27,43,5,22,18,36,9,3,49,37,16],"responseType":"finish","internal_node_id":"0.0-0.0","time_elapsed":4650,"trial_index":0,"trial_type":"survey-multi-choice","responses":"{\"Q0\":\"I consent to participate\"}","rt":4621},{"participantID":"goxzca1lx6vlbzmf9la861fhqlmtxlmn","judgmentIndices":[2,0,1,3],"questionScores":[null,32,41,2405,null,2417,18,null,null,2404,21,2398],"questionIndices":[44,27,43,5,22,18,36,9,3,49,37,16],"responseType":"finish","internal_node_id":"0.0-1.0","time_elapsed":18796,"trial_index":1,"trial_type":"instructions","rt":13139,"view_history":"[{\"page_index\":0,\"viewing_time\":13138}]"},{"participantID":"goxzca1lx6vlbzmf9la861fhqlmtxlmn","judgmentIndices":[2,0,1,3],"questionScores":[null,32,41,2405,null,2417,18,null,null,2404,21,2398],"questionIndices":[44,27,43,5,22,18,36,9,3,49,37,16],"responseType":"finish","internal_node_id":"0.0-2.0-0.0","time_elapsed":38745,"trial_index":2,"trial_type":"survey-likert","responses":"{\"Q0\":\"4\",\"Q1\":\"5\",\"Q2\":\"2\",\"Q3\":\"3\"}","rt":18929},{"participantID":"goxzca1lx6vlbzmf9la861fhqlmtxlmn","judgmentIndices":[2,0,1,3],"questionScores":[null,32,41,2405,null,2417,18,null,null,2404,21,2398],"questionIndices":[44,27,43,5,22,18,36,9,3,49,37,16],"responseType":"finish","internal_node_id":"0.0-2.0-1.0","time_elapsed":52157,"trial_index":3,"trial_type":"survey-likert","responses":"{\"Q0\":\"4\",\"Q1\":\"4\",\"Q2\":\"2\",\"Q3\":\"3\"}","rt":12401},{"participantID":"goxzca1lx6vlbzmf9la861fhqlmtxlmn","judgmentIndices":[2,0,1,3],"questionScores":[null,32,41,2405,null,2417,18,null,null,2404,21,2398],"questionIndices":[44,27,43,5,22,18,36,9,3,49,37,16],"responseType":"finish","internal_node_id":"0.0-2.0-2.0","time_elapsed":66395,"trial_index":4,"trial_type":"survey-likert","responses":"{\"Q0\":\"3\",\"Q1\":\"3\",\"Q2\":\"0\",\"Q3\":\"2\"}","rt":13220},{"participantID":"goxzca1lx6vlbzmf9la861fhqlmtxlmn","judgmentIndices":[2,0,1,3],"questionScores":[null,32,41,2405,null,2417,18,null,null,2404,21,2398],"questionIndices":[44,27,43,5,22,18,36,9,3,49,37,16],"responseType":"finish","internal_node_id":"0.0-2.0-3.0","time_elapsed":78634,"trial_index":5,"trial_type":"survey-likert","responses":"{\"Q0\":\"4\",\"Q1\":\"5\",\"Q2\":\"0\",\"Q3\":\"4\"}","rt":11224},{"participantID":"goxzca1lx6vlbzmf9la861fhqlmtxlmn","judgmentIndices":[2,0,1,3],"questionScores":[null,32,41,2405,null,2417,18,null,null,2404,21,2398],"questionIndices":[44,27,43,5,22,18,36,9,3,49,37,16],"responseType":"finish","internal_node_id":"0.0-2.0-4.0","time_elapsed":92424,"trial_index":6,"trial_type":"survey-likert","responses":"{\"Q0\":\"4\",\"Q1\":\"4\",\"Q2\":\"4\",\"Q3\":\"4\"}","rt":12776},{"participantID":"goxzca1lx6vlbzmf9la861fhqlmtxlmn","judgmentIndices":[2,0,1,3],"questionScores":[null,32,41,2405,null,2417,18,null,null,2404,21,2398],"questionIndices":[44,27,43,5,22,18,36,9,3,49,37,16],"responseType":"finish","internal_node_id":"0.0-2.0-5.0","time_elapsed":100595,"trial_index":7,"trial_type":"survey-likert","responses":"{\"Q0\":\"4\",\"Q1\":\"4\",\"Q2\":\"0\",\"Q3\":\"2\"}","rt":7157},{"participantID":"goxzca1lx6vlbzmf9la861fhqlmtxlmn","judgmentIndices":[2,0,1,3],"questionScores":[null,32,41,2405,null,2417,18,null,null,2404,21,2398],"questionIndices":[44,27,43,5,22,18,36,9,3,49,37,16],"responseType":"finish","internal_node_id":"0.0-3.0","time_elapsed":116536,"trial_index":8,"trial_type":"survey-likert","responses":"{\"Q0\":\"3\",\"Q1\":\"3\",\"Q2\":\"2\",\"Q3\":\"3\",\"Q4\":\"6\"}","rt":14926},{"participantID":"goxzca1lx6vlbzmf9la861fhqlmtxlmn","judgmentIndices":[2,0,1,3],"questionScores":[null,32,41,2405,null,2417,18,null,null,2404,21,2398],"questionIndices":[44,27,43,5,22,18,36,9,3,49,37,16],"responseType":"finish","internal_node_id":"0.0-4.0-0.0","time_elapsed":131656,"trial_index":9,"trial_type":"survey-likert","responses":"{\"Q0\":\"2\",\"Q1\":\"2\",\"Q2\":\"1\",\"Q3\":\"2\"}","rt":14106},{"participantID":"goxzca1lx6vlbzmf9la861fhqlmtxlmn","judgmentIndices":[2,0,1,3],"questionScores":[null,32,41,2405,null,2417,18,null,null,2404,21,2398],"questionIndices":[44,27,43,5,22,18,36,9,3,49,37,16],"responseType":"finish","internal_node_id":"0.0-4.0-1.0","time_elapsed":141784,"trial_index":10,"trial_type":"survey-likert","responses":"{\"Q0\":\"3\",\"Q1\":\"2\",\"Q2\":\"2\",\"Q3\":\"4\"}","rt":9117},{"participantID":"goxzca1lx6vlbzmf9la861fhqlmtxlmn","judgmentIndices":[2,0,1,3],"questionScores":[null,32,41,2405,null,2417,18,null,null,2404,21,2398],"questionIndices":[44,27,43,5,22,18,36,9,3,49,37,16],"responseType":"finish","internal_node_id":"0.0-4.0-2.0","time_elapsed":151669,"trial_index":11,"trial_type":"survey-likert","responses":"{\"Q0\":\"4\",\"Q1\":\"5\",\"Q2\":\"0\",\"Q3\":\"3\"}","rt":8871},{"participantID":"goxzca1lx6vlbzmf9la861fhqlmtxlmn","judgmentIndices":[2,0,1,3],"questionScores":[null,32,41,2405,null,2417,18,null,null,2404,21,2398],"questionIndices":[44,27,43,5,22,18,36,9,3,49,37,16],"responseType":"finish","internal_node_id":"0.0-4.0-3.0","time_elapsed":161250,"trial_index":12,"trial_type":"survey-likert","responses":"{\"Q0\":\"5\",\"Q1\":\"5\",\"Q2\":\"1\",\"Q3\":\"4\"}","rt":8569},{"participantID":"goxzca1lx6vlbzmf9la861fhqlmtxlmn","judgmentIndices":[2,0,1,3],"questionScores":[null,32,41,2405,null,2417,18,null,null,2404,21,2398],"questionIndices":[44,27,43,5,22,18,36,9,3,49,37,16],"responseType":"finish","internal_node_id":"0.0-4.0-4.0","time_elapsed":170009,"trial_index":13,"trial_type":"survey-likert","responses":"{\"Q0\":\"2\",\"Q1\":\"2\",\"Q2\":\"1\",\"Q3\":\"2\"}","rt":7747}],"__v":0}
{"_id":{"$oid":"5ca0064412c8600004840164"},"data":[{"participantID":"j06j83a97loyc5won1rk9hg46qrwnzbs","judgmentIndices":[2,0,1,3],"questionScores":[24,null,null,2385,2392,2375,2388,22,null,27,null,41],"questionIndices":[10,45,44,38,11,1,8,6,28,5,15,39],"responseType":"finish","internal_node_id":"0.0-0.0","time_elapsed":6265,"trial_index":0,"trial_type":"survey-multi-choice","responses":"{\"Q0\":\"I consent to participate\"}","rt":6191},{"participantID":"j06j83a97loyc5won1rk9hg46qrwnzbs","judgmentIndices":[2,0,1,3],"questionScores":[24,null,null,2385,2392,2375,2388,22,null,27,null,41],"questionIndices":[10,45,44,38,11,1,8,6,28,5,15,39],"responseType":"finish","internal_node_id":"0.0-1.0","time_elapsed":16984,"trial_index":1,"trial_type":"instructions","rt":9695,"view_history":"[{\"page_index\":0,\"viewing_time\":9693}]"},{"participantID":"j06j83a97loyc5won1rk9hg46qrwnzbs","judgmentIndices":[2,0,1,3],"questionScores":[24,null,null,2385,2392,2375,2388,22,null,27,null,41],"questionIndices":[10,45,44,38,11,1,8,6,28,5,15,39],"responseType":"finish","internal_node_id":"0.0-2.0-0.0","time_elapsed":38167,"trial_index":2,"trial_type":"survey-likert","responses":"{\"Q0\":\"2\",\"Q1\":\"6\",\"Q2\":\"0\",\"Q3\":\"3\"}","rt":20151},{"participantID":"j06j83a97loyc5won1rk9hg46qrwnzbs","judgmentIndices":[2,0,1,3],"questionScores":[24,null,null,2385,2392,2375,2388,22,null,27,null,41],"questionIndices":[10,45,44,38,11,1,8,6,28,5,15,39],"responseType":"finish","internal_node_id":"0.0-2.0-1.0","time_elapsed":53751,"trial_index":3,"trial_type":"survey-likert","responses":"{\"Q0\":\"5\",\"Q1\":\"6\",\"Q2\":\"1\",\"Q3\":\"5\"}","rt":14550},{"participantID":"j06j83a97loyc5won1rk9hg46qrwnzbs","judgmentIndices":[2,0,1,3],"questionScores":[24,null,null,2385,2392,2375,2388,22,null,27,null,41],"questionIndices":[10,45,44,38,11,1,8,6,28,5,15,39],"responseType":"finish","internal_node_id":"0.0-2.0-2.0","time_elapsed":94081,"trial_index":4,"trial_type":"survey-likert","responses":"{\"Q0\":\"6\",\"Q1\":\"4\",\"Q2\":\"3\",\"Q3\":\"3\"}","rt":39292},{"participantID":"j06j83a97loyc5won1rk9hg46qrwnzbs","judgmentIndices":[2,0,1,3],"questionScores":[24,null,null,2385,2392,2375,2388,22,null,27,null,41],"questionIndices":[10,45,44,38,11,1,8,6,28,5,15,39],"responseType":"finish","internal_node_id":"0.0-2.0-3.0","time_elapsed":109551,"trial_index":5,"trial_type":"survey-likert","responses":"{\"Q0\":\"2\",\"Q1\":\"3\",\"Q2\":\"0\",\"Q3\":\"0\"}","rt":14456},{"participantID":"j06j83a97loyc5won1rk9hg46qrwnzbs","judgmentIndices":[2,0,1,3],"questionScores":[24,null,null,2385,2392,2375,2388,22,null,27,null,41],"questionIndices":[10,45,44,38,11,1,8,6,28,5,15,39],"responseType":"finish","internal_node_id":"0.0-2.0-4.0","time_elapsed":125117,"trial_index":6,"trial_type":"survey-likert","responses":"{\"Q0\":\"4\",\"Q1\":\"5\",\"Q2\":\"5\",\"Q3\":\"3\"}","rt":14534},{"participantID":"j06j83a97loyc5won1rk9hg46qrwnzbs","judgmentIndices":[2,0,1,3],"questionScores":[24,null,null,2385,2392,2375,2388,22,null,27,null,41],"questionIndices":[10,45,44,38,11,1,8,6,28,5,15,39],"responseType":"finish","internal_node_id":"0.0-2.0-5.0","time_elapsed":141651,"trial_index":7,"trial_type":"survey-likert","responses":"{\"Q0\":\"1\",\"Q1\":\"1\",\"Q2\":\"5\",\"Q3\":\"0\"}","rt":15497},{"participantID":"j06j83a97loyc5won1rk9hg46qrwnzbs","judgmentIndices":[2,0,1,3],"questionScores":[24,null,null,2385,2392,2375,2388,22,null,27,null,41],"questionIndices":[10,45,44,38,11,1,8,6,28,5,15,39],"responseType":"finish","internal_node_id":"0.0-3.0","time_elapsed":161378,"trial_index":8,"trial_type":"survey-likert","responses":"{\"Q0\":\"4\",\"Q1\":\"4\",\"Q2\":\"0\",\"Q3\":\"1\",\"Q4\":\"6\"}","rt":18683},{"participantID":"j06j83a97loyc5won1rk9hg46qrwnzbs","judgmentIndices":[2,0,1,3],"questionScores":[24,null,null,2385,2392,2375,2388,22,null,27,null,41],"questionIndices":[10,45,44,38,11,1,8,6,28,5,15,39],"responseType":"finish","internal_node_id":"0.0-4.0-0.0","time_elapsed":175553,"trial_index":9,"trial_type":"survey-likert","responses":"{\"Q0\":\"6\",\"Q1\":\"6\",\"Q2\":\"0\",\"Q3\":\"6\"}","rt":13135},{"participantID":"j06j83a97loyc5won1rk9hg46qrwnzbs","judgmentIndices":[2,0,1,3],"questionScores":[24,null,null,2385,2392,2375,2388,22,null,27,null,41],"questionIndices":[10,45,44,38,11,1,8,6,28,5,15,39],"responseType":"finish","internal_node_id":"0.0-4.0-1.0","time_elapsed":188070,"trial_index":10,"trial_type":"survey-likert","responses":"{\"Q0\":\"1\",\"Q1\":\"4\",\"Q2\":\"0\",\"Q3\":\"0\"}","rt":11481},{"participantID":"j06j83a97loyc5won1rk9hg46qrwnzbs","judgmentIndices":[2,0,1,3],"questionScores":[24,null,null,2385,2392,2375,2388,22,null,27,null,41],"questionIndices":[10,45,44,38,11,1,8,6,28,5,15,39],"responseType":"finish","internal_node_id":"0.0-4.0-2.0","time_elapsed":198969,"trial_index":11,"trial_type":"survey-likert","responses":"{\"Q0\":\"3\",\"Q1\":\"5\",\"Q2\":\"0\",\"Q3\":\"0\"}","rt":9877},{"participantID":"j06j83a97loyc5won1rk9hg46qrwnzbs","judgmentIndices":[2,0,1,3],"questionScores":[24,null,null,2385,2392,2375,2388,22,null,27,null,41],"questionIndices":[10,45,44,38,11,1,8,6,28,5,15,39],"responseType":"finish","internal_node_id":"0.0-4.0-3.0","time_elapsed":214888,"trial_index":12,"trial_type":"survey-likert","responses":"{\"Q0\":\"2\",\"Q1\":\"1\",\"Q2\":\"0\",\"Q3\":\"0\"}","rt":14882},{"participantID":"j06j83a97loyc5won1rk9hg46qrwnzbs","judgmentIndices":[2,0,1,3],"questionScores":[24,null,null,2385,2392,2375,2388,22,null,27,null,41],"questionIndices":[10,45,44,38,11,1,8,6,28,5,15,39],"responseType":"finish","internal_node_id":"0.0-4.0-4.0","time_elapsed":234034,"trial_index":13,"trial_type":"survey-likert","responses":"{\"Q0\":\"3\",\"Q1\":\"5\",\"Q2\":\"0\",\"Q3\":\"0\"}","rt":18118}],"__v":0}
{"_id":{"$oid":"5ca006c812c8600004840165"},"data":[{"participantID":"mjln2qa8x492ceohm2vvjl3ha2anmoa4","judgmentIndices":[2,3,1,0],"questionScores":[36,2391,null,2396,30,34,null,2400,null,2396,null,32],"questionIndices":[47,6,9,21,40,28,45,43,4,24,35,23],"responseType":"finish","internal_node_id":"0.0-0.0","time_elapsed":3530,"trial_index":0,"trial_type":"survey-multi-choice","responses":"{\"Q0\":\"I consent to participate\"}","rt":3515},{"participantID":"mjln2qa8x492ceohm2vvjl3ha2anmoa4","judgmentIndices":[2,3,1,0],"questionScores":[36,2391,null,2396,30,34,null,2400,null,2396,null,32],"questionIndices":[47,6,9,21,40,28,45,43,4,24,35,23],"responseType":"finish","internal_node_id":"0.0-1.0","time_elapsed":18457,"trial_index":1,"trial_type":"instructions","rt":13926,"view_history":"[{\"page_index\":0,\"viewing_time\":13925}]"},{"participantID":"mjln2qa8x492ceohm2vvjl3ha2anmoa4","judgmentIndices":[2,3,1,0],"questionScores":[36,2391,null,2396,30,34,null,2400,null,2396,null,32],"questionIndices":[47,6,9,21,40,28,45,43,4,24,35,23],"responseType":"finish","internal_node_id":"0.0-2.0-0.0","time_elapsed":40704,"trial_index":2,"trial_type":"survey-likert","responses":"{\"Q0\":\"1\",\"Q1\":\"0\",\"Q2\":\"0\",\"Q3\":\"3\"}","rt":21238},{"participantID":"mjln2qa8x492ceohm2vvjl3ha2anmoa4","judgmentIndices":[2,3,1,0],"questionScores":[36,2391,null,2396,30,34,null,2400,null,2396,null,32],"questionIndices":[47,6,9,21,40,28,45,43,4,24,35,23],"responseType":"finish","internal_node_id":"0.0-2.0-1.0","time_elapsed":61732,"trial_index":3,"trial_type":"survey-likert","responses":"{\"Q0\":\"1\",\"Q1\":\"1\",\"Q2\":\"0\",\"Q3\":\"3\"}","rt":20024},{"participantID":"mjln2qa8x492ceohm2vvjl3ha2anmoa4","judgmentIndices":[2,3,1,0],"questionScores":[36,2391,null,2396,30,34,null,2400,null,2396,null,32],"questionIndices":[47,6,9,21,40,28,45,43,4,24,35,23],"responseType":"finish","internal_node_id":"0.0-2.0-2.0","time_elapsed":77474,"trial_index":4,"trial_type":"survey-likert","responses":"{\"Q0\":\"2\",\"Q1\":\"3\",\"Q2\":\"1\",\"Q3\":\"4\"}","rt":14738},{"participantID":"mjln2qa8x492ceohm2vvjl3ha2anmoa4","judgmentIndices":[2,3,1,0],"questionScores":[36,2391,null,2396,30,34,null,2400,null,2396,null,32],"questionIndices":[47,6,9,21,40,28,45,43,4,24,35,23],"responseType":"finish","internal_node_id":"0.0-2.0-3.0","time_elapsed":90493,"trial_index":5,"trial_type":"survey-likert","responses":"{\"Q0\":\"0\",\"Q1\":\"0\",\"Q2\":\"0\",\"Q3\":\"0\"}","rt":12013},{"participantID":"mjln2qa8x492ceohm2vvjl3ha2anmoa4","judgmentIndices":[2,3,1,0],"questionScores":[36,2391,null,2396,30,34,null,2400,null,2396,null,32],"questionIndices":[47,6,9,21,40,28,45,43,4,24,35,23],"responseType":"finish","internal_node_id":"0.0-2.0-4.0","time_elapsed":109936,"trial_index":6,"trial_type":"survey-likert","responses":"{\"Q0\":\"5\",\"Q1\":\"6\",\"Q2\":\"0\",\"Q3\":\"6\"}","rt":18438},{"participantID":"mjln2qa8x492ceohm2vvjl3ha2anmoa4","judgmentIndices":[2,3,1,0],"questionScores":[36,2391,null,2396,30,34,null,2400,null,2396,null,32],"questionIndices":[47,6,9,21,40,28,45,43,4,24,35,23],"responseType":"finish","internal_node_id":"0.0-2.0-5.0","time_elapsed":126966,"trial_index":7,"trial_type":"survey-likert","responses":"{\"Q0\":\"0\",\"Q1\":\"1\",\"Q2\":\"6\",\"Q3\":\"2\"}","rt":16024},{"participantID":"mjln2qa8x492ceohm2vvjl3ha2anmoa4","judgmentIndices":[2,3,1,0],"questionScores":[36,2391,null,2396,30,34,null,2400,null,2396,null,32],"questionIndices":[47,6,9,21,40,28,45,43,4,24,35,23],"responseType":"finish","internal_node_id":"0.0-3.0","time_elapsed":142926,"trial_index":8,"trial_type":"survey-likert","responses":"{\"Q0\":\"0\",\"Q1\":\"0\",\"Q2\":\"0\",\"Q3\":\"0\",\"Q4\":\"6\"}","rt":14955},{"participantID":"mjln2qa8x492ceohm2vvjl3ha2anmoa4","judgmentIndices":[2,3,1,0],"questionScores":[36,2391,null,2396,30,34,null,2400,null,2396,null,32],"questionIndices":[47,6,9,21,40,28,45,43,4,24,35,23],"responseType":"finish","internal_node_id":"0.0-4.0-0.0","time_elapsed":157449,"trial_index":9,"trial_type":"survey-likert","responses":"{\"Q0\":\"1\",\"Q1\":\"2\",\"Q2\":\"0\",\"Q3\":\"0\"}","rt":13514},{"participantID":"mjln2qa8x492ceohm2vvjl3ha2anmoa4","judgmentIndices":[2,3,1,0],"questionScores":[36,2391,null,2396,30,34,null,2400,null,2396,null,32],"questionIndices":[47,6,9,21,40,28,45,43,4,24,35,23],"responseType":"finish","internal_node_id":"0.0-4.0-1.0","time_elapsed":173127,"trial_index":10,"trial_type":"survey-likert","responses":"{\"Q0\":\"3\",\"Q1\":\"4\",\"Q2\":\"0\",\"Q3\":\"2\"}","rt":14671},{"participantID":"mjln2qa8x492ceohm2vvjl3ha2anmoa4","judgmentIndices":[2,3,1,0],"questionScores":[36,2391,null,2396,30,34,null,2400,null,2396,null,32],"questionIndices":[47,6,9,21,40,28,45,43,4,24,35,23],"responseType":"finish","internal_node_id":"0.0-4.0-2.0","time_elapsed":190386,"trial_index":11,"trial_type":"survey-likert","responses":"{\"Q0\":\"0\",\"Q1\":\"1\",\"Q2\":\"4\",\"Q3\":\"1\"}","rt":16252},{"participantID":"mjln2qa8x492ceohm2vvjl3ha2anmoa4","judgmentIndices":[2,3,1,0],"questionScores":[36,2391,null,2396,30,34,null,2400,null,2396,null,32],"questionIndices":[47,6,9,21,40,28,45,43,4,24,35,23],"responseType":"finish","internal_node_id":"0.0-4.0-3.0","time_elapsed":202896,"trial_index":12,"trial_type":"survey-likert","responses":"{\"Q0\":\"0\",\"Q1\":\"1\",\"Q2\":\"4\",\"Q3\":\"1\"}","rt":11502},{"participantID":"mjln2qa8x492ceohm2vvjl3ha2anmoa4","judgmentIndices":[2,3,1,0],"questionScores":[36,2391,null,2396,30,34,null,2400,null,2396,null,32],"questionIndices":[47,6,9,21,40,28,45,43,4,24,35,23],"responseType":"finish","internal_node_id":"0.0-4.0-4.0","time_elapsed":217508,"trial_index":13,"trial_type":"survey-likert","responses":"{\"Q0\":\"0\",\"Q1\":\"1\",\"Q2\":\"3\",\"Q3\":\"1\"}","rt":13607}],"__v":0}
{"_id":{"$oid":"5ca007b612c8600004840166"},"data":[{"participantID":"e6jveu5b2d88nhpbe149b24fqwe9aq21","judgmentIndices":[0,3,2,1],"questionScores":[null,null,null,2406,2428,27,2403,null,2389,23,41,19],"questionIndices":[15,6,37,45,26,5,0,48,3,23,12,18],"responseType":"finish","internal_node_id":"0.0-0.0","time_elapsed":15812,"trial_index":0,"trial_type":"survey-multi-choice","responses":"{\"Q0\":\"I consent to participate\"}","rt":15789},{"participantID":"e6jveu5b2d88nhpbe149b24fqwe9aq21","judgmentIndices":[0,3,2,1],"questionScores":[null,null,null,2406,2428,27,2403,null,2389,23,41,19],"questionIndices":[15,6,37,45,26,5,0,48,3,23,12,18],"responseType":"finish","internal_node_id":"0.0-1.0","time_elapsed":19521,"trial_index":1,"trial_type":"instructions","rt":2706,"view_history":"[{\"page_index\":0,\"viewing_time\":2705}]"},{"participantID":"e6jveu5b2d88nhpbe149b24fqwe9aq21","judgmentIndices":[0,3,2,1],"questionScores":[null,null,null,2406,2428,27,2403,null,2389,23,41,19],"questionIndices":[15,6,37,45,26,5,0,48,3,23,12,18],"responseType":"finish","internal_node_id":"0.0-2.0-0.0","time_elapsed":83520,"trial_index":2,"trial_type":"survey-likert","responses":"{\"Q0\":\"6\",\"Q1\":\"6\",\"Q2\":\"6\",\"Q3\":\"6\"}","rt":62988},{"participantID":"e6jveu5b2d88nhpbe149b24fqwe9aq21","judgmentIndices":[0,3,2,1],"questionScores":[null,null,null,2406,2428,27,2403,null,2389,23,41,19],"questionIndices":[15,6,37,45,26,5,0,48,3,23,12,18],"responseType":"finish","internal_node_id":"0.0-2.0-1.0","time_elapsed":102258,"trial_index":3,"trial_type":"survey-likert","responses":"{\"Q0\":\"6\",\"Q1\":\"6\",\"Q2\":\"6\",\"Q3\":\"6\"}","rt":17730},{"participantID":"e6jveu5b2d88nhpbe149b24fqwe9aq21","judgmentIndices":[0,3,2,1],"questionScores":[null,null,null,2406,2428,27,2403,null,2389,23,41,19],"questionIndices":[15,6,37,45,26,5,0,48,3,23,12,18],"responseType":"finish","internal_node_id":"0.0-2.0-2.0","time_elapsed":115654,"trial_index":4,"trial_type":"survey-likert","responses":"{\"Q0\":\"6\",\"Q1\":\"6\",\"Q2\":\"6\",\"Q3\":\"6\"}","rt":12388},{"participantID":"e6jveu5b2d88nhpbe149b24fqwe9aq21","judgmentIndices":[0,3,2,1],"questionScores":[null,null,null,2406,2428,27,2403,null,2389,23,41,19],"questionIndices":[15,6,37,45,26,5,0,48,3,23,12,18],"responseType":"finish","internal_node_id":"0.0-2.0-3.0","time_elapsed":162364,"trial_index":5,"trial_type":"survey-likert","responses":"{\"Q0\":\"0\",\"Q1\":\"0\",\"Q2\":\"0\",\"Q3\":\"0\"}","rt":45702},{"participantID":"e6jveu5b2d88nhpbe149b24fqwe9aq21","judgmentIndices":[0,3,2,1],"questionScores":[null,null,null,2406,2428,27,2403,null,2389,23,41,19],"questionIndices":[15,6,37,45,26,5,0,48,3,23,12,18],"responseType":"finish","internal_node_id":"0.0-2.0-4.0","time_elapsed":180864,"trial_index":6,"trial_type":"survey-likert","responses":"{\"Q0\":\"6\",\"Q1\":\"6\",\"Q2\":\"6\",\"Q3\":\"6\"}","rt":17492},{"participantID":"e6jveu5b2d88nhpbe149b24fqwe9aq21","judgmentIndices":[0,3,2,1],"questionScores":[null,null,null,2406,2428,27,2403,null,2389,23,41,19],"questionIndices":[15,6,37,45,26,5,0,48,3,23,12,18],"responseType":"finish","internal_node_id":"0.0-2.0-5.0","time_elapsed":196634,"trial_index":7,"trial_type":"survey-likert","responses":"{\"Q0\":\"6\",\"Q1\":\"6\",\"Q2\":\"6\",\"Q3\":\"6\"}","rt":14761},{"participantID":"e6jveu5b2d88nhpbe149b24fqwe9aq21","judgmentIndices":[0,3,2,1],"questionScores":[null,null,null,2406,2428,27,2403,null,2389,23,41,19],"questionIndices":[15,6,37,45,26,5,0,48,3,23,12,18],"responseType":"finish","internal_node_id":"0.0-3.0","time_elapsed":213694,"trial_index":8,"trial_type":"survey-likert","responses":"{\"Q0\":\"6\",\"Q1\":\"6\",\"Q2\":\"6\",\"Q3\":\"6\",\"Q4\":\"6\"}","rt":16050},{"participantID":"e6jveu5b2d88nhpbe149b24fqwe9aq21","judgmentIndices":[0,3,2,1],"questionScores":[null,null,null,2406,2428,27,2403,null,2389,23,41,19],"questionIndices":[15,6,37,45,26,5,0,48,3,23,12,18],"responseType":"finish","internal_node_id":"0.0-4.0-0.0","time_elapsed":239909,"trial_index":9,"trial_type":"survey-likert","responses":"{\"Q0\":\"6\",\"Q1\":\"6\",\"Q2\":\"6\",\"Q3\":\"6\"}","rt":25206},{"participantID":"e6jveu5b2d88nhpbe149b24fqwe9aq21","judgmentIndices":[0,3,2,1],"questionScores":[null,null,null,2406,2428,27,2403,null,2389,23,41,19],"questionIndices":[15,6,37,45,26,5,0,48,3,23,12,18],"responseType":"finish","internal_node_id":"0.0-4.0-1.0","time_elapsed":257079,"trial_index":10,"trial_type":"survey-likert","responses":"{\"Q0\":\"6\",\"Q1\":\"6\",\"Q2\":\"6\",\"Q3\":\"6\"}","rt":16161},{"participantID":"e6jveu5b2d88nhpbe149b24fqwe9aq21","judgmentIndices":[0,3,2,1],"questionScores":[null,null,null,2406,2428,27,2403,null,2389,23,41,19],"questionIndices":[15,6,37,45,26,5,0,48,3,23,12,18],"responseType":"finish","internal_node_id":"0.0-4.0-2.0","time_elapsed":294912,"trial_index":11,"trial_type":"survey-likert","responses":"{\"Q0\":\"3\",\"Q1\":\"3\",\"Q2\":\"3\",\"Q3\":\"3\"}","rt":36823},{"participantID":"e6jveu5b2d88nhpbe149b24fqwe9aq21","judgmentIndices":[0,3,2,1],"questionScores":[null,null,null,2406,2428,27,2403,null,2389,23,41,19],"questionIndices":[15,6,37,45,26,5,0,48,3,23,12,18],"responseType":"finish","internal_node_id":"0.0-4.0-3.0","time_elapsed":307336,"trial_index":12,"trial_type":"survey-likert","responses":"{\"Q0\":\"6\",\"Q1\":\"6\",\"Q2\":\"6\",\"Q3\":\"6\"}","rt":11415},{"participantID":"e6jveu5b2d88nhpbe149b24fqwe9aq21","judgmentIndices":[0,3,2,1],"questionScores":[null,null,null,2406,2428,27,2403,null,2389,23,41,19],"questionIndices":[15,6,37,45,26,5,0,48,3,23,12,18],"responseType":"finish","internal_node_id":"0.0-4.0-4.0","time_elapsed":316969,"trial_index":13,"trial_type":"survey-likert","responses":"{\"Q0\":\"6\",\"Q1\":\"6\",\"Q2\":\"6\",\"Q3\":\"6\"}","rt":8625}],"__v":0}
{"_id":{"$oid":"5ca0080912c8600004840167"},"data":[{"participantID":"d78j47y3rmnkh3ufaylg924muhq3gcps","judgmentIndices":[2,1,3,0],"questionScores":[15,null,null,28,2398,null,null,2401,33,24,2410,2404],"questionIndices":[34,37,36,3,10,28,47,19,30,42,5,49],"responseType":"finish","internal_node_id":"0.0-0.0","time_elapsed":26013,"trial_index":0,"trial_type":"survey-multi-choice","responses":"{\"Q0\":\"I consent to participate\"}","rt":25998},{"participantID":"d78j47y3rmnkh3ufaylg924muhq3gcps","judgmentIndices":[2,1,3,0],"questionScores":[15,null,null,28,2398,null,null,2401,33,24,2410,2404],"questionIndices":[34,37,36,3,10,28,47,19,30,42,5,49],"responseType":"finish","internal_node_id":"0.0-1.0","time_elapsed":39553,"trial_index":1,"trial_type":"instructions","rt":12539,"view_history":"[{\"page_index\":0,\"viewing_time\":12539}]"},{"participantID":"d78j47y3rmnkh3ufaylg924muhq3gcps","judgmentIndices":[2,1,3,0],"questionScores":[15,null,null,28,2398,null,null,2401,33,24,2410,2404],"questionIndices":[34,37,36,3,10,28,47,19,30,42,5,49],"responseType":"finish","internal_node_id":"0.0-2.0-0.0","time_elapsed":68523,"trial_index":2,"trial_type":"survey-likert","responses":"{\"Q0\":\"2\",\"Q1\":\"3\",\"Q2\":\"2\",\"Q3\":\"1\"}","rt":27964},{"participantID":"d78j47y3rmnkh3ufaylg924muhq3gcps","judgmentIndices":[2,1,3,0],"questionScores":[15,null,null,28,2398,null,null,2401,33,24,2410,2404],"questionIndices":[34,37,36,3,10,28,47,19,30,42,5,49],"responseType":"finish","internal_node_id":"0.0-2.0-1.0","time_elapsed":84595,"trial_index":3,"trial_type":"survey-likert","responses":"{\"Q0\":\"2\",\"Q1\":\"1\",\"Q2\":\"2\",\"Q3\":\"2\"}","rt":15064},{"participantID":"d78j47y3rmnkh3ufaylg924muhq3gcps","judgmentIndices":[2,1,3,0],"questionScores":[15,null,null,28,2398,null,null,2401,33,24,2410,2404],"questionIndices":[34,37,36,3,10,28,47,19,30,42,5,49],"responseType":"finish","internal_node_id":"0.0-2.0-2.0","time_elapsed":106674,"trial_index":4,"trial_type":"survey-likert","responses":"{\"Q0\":\"1\",\"Q1\":\"0\",\"Q2\":\"1\",\"Q3\":\"2\"}","rt":21075},{"participantID":"d78j47y3rmnkh3ufaylg924muhq3gcps","judgmentIndices":[2,1,3,0],"questionScores":[15,null,null,28,2398,null,null,2401,33,24,2410,2404],"questionIndices":[34,37,36,3,10,28,47,19,30,42,5,49],"responseType":"finish","internal_node_id":"0.0-2.0-3.0","time_elapsed":123041,"trial_index":5,"trial_type":"survey-likert","responses":"{\"Q0\":\"0\",\"Q1\":\"0\",\"Q2\":\"1\",\"Q3\":\"1\"}","rt":15364},{"participantID":"d78j47y3rmnkh3ufaylg924muhq3gcps","judgmentIndices":[2,1,3,0],"questionScores":[15,null,null,28,2398,null,null,2401,33,24,2410,2404],"questionIndices":[34,37,36,3,10,28,47,19,30,42,5,49],"responseType":"finish","internal_node_id":"0.0-2.0-4.0","time_elapsed":134373,"trial_index":6,"trial_type":"survey-likert","responses":"{\"Q0\":\"1\",\"Q1\":\"0\",\"Q2\":\"1\",\"Q3\":\"3\"}","rt":10326},{"participantID":"d78j47y3rmnkh3ufaylg924muhq3gcps","judgmentIndices":[2,1,3,0],"questionScores":[15,null,null,28,2398,null,null,2401,33,24,2410,2404],"questionIndices":[34,37,36,3,10,28,47,19,30,42,5,49],"responseType":"finish","internal_node_id":"0.0-2.0-5.0","time_elapsed":149617,"trial_index":7,"trial_type":"survey-likert","responses":"{\"Q0\":\"1\",\"Q1\":\"0\",\"Q2\":\"1\",\"Q3\":\"3\"}","rt":14239},{"participantID":"d78j47y3rmnkh3ufaylg924muhq3gcps","judgmentIndices":[2,1,3,0],"questionScores":[15,null,null,28,2398,null,null,2401,33,24,2410,2404],"questionIndices":[34,37,36,3,10,28,47,19,30,42,5,49],"responseType":"finish","internal_node_id":"0.0-3.0","time_elapsed":177225,"trial_index":8,"trial_type":"survey-likert","responses":"{\"Q0\":\"2\",\"Q1\":\"0\",\"Q2\":\"3\",\"Q3\":\"3\",\"Q4\":\"6\"}","rt":26601},{"participantID":"d78j47y3rmnkh3ufaylg924muhq3gcps","judgmentIndices":[2,1,3,0],"questionScores":[15,null,null,28,2398,null,null,2401,33,24,2410,2404],"questionIndices":[34,37,36,3,10,28,47,19,30,42,5,49],"responseType":"finish","internal_node_id":"0.0-4.0-0.0","time_elapsed":219820,"trial_index":9,"trial_type":"survey-likert","responses":"{\"Q0\":\"2\",\"Q1\":\"0\",\"Q2\":\"3\",\"Q3\":\"3\"}","rt":41588},{"participantID":"d78j47y3rmnkh3ufaylg924muhq3gcps","judgmentIndices":[2,1,3,0],"questionScores":[15,null,null,28,2398,null,null,2401,33,24,2410,2404],"questionIndices":[34,37,36,3,10,28,47,19,30,42,5,49],"responseType":"finish","internal_node_id":"0.0-4.0-1.0","time_elapsed":243514,"trial_index":10,"trial_type":"survey-likert","responses":"{\"Q0\":\"1\",\"Q1\":\"0\",\"Q2\":\"1\",\"Q3\":\"2\"}","rt":22688},{"participantID":"d78j47y3rmnkh3ufaylg924muhq3gcps","judgmentIndices":[2,1,3,0],"questionScores":[15,null,null,28,2398,null,null,2401,33,24,2410,2404],"questionIndices":[34,37,36,3,10,28,47,19,30,42,5,49],"responseType":"finish","internal_node_id":"0.0-4.0-2.0","time_elapsed":260778,"trial_index":11,"trial_type":"survey-likert","responses":"{\"Q0\":\"2\",\"Q1\":\"0\",\"Q2\":\"3\",\"Q3\":\"2\"}","rt":16258},{"participantID":"d78j47y3rmnkh3ufaylg924muhq3gcps","judgmentIndices":[2,1,3,0],"questionScores":[15,null,null,28,2398,null,null,2401,33,24,2410,2404],"questionIndices":[34,37,36,3,10,28,47,19,30,42,5,49],"responseType":"finish","internal_node_id":"0.0-4.0-3.0","time_elapsed":284834,"trial_index":12,"trial_type":"survey-likert","responses":"{\"Q0\":\"1\",\"Q1\":\"0\",\"Q2\":\"1\",\"Q3\":\"1\"}","rt":23051},{"participantID":"d78j47y3rmnkh3ufaylg924muhq3gcps","judgmentIndices":[2,1,3,0],"questionScores":[15,null,null,28,2398,null,null,2401,33,24,2410,2404],"questionIndices":[34,37,36,3,10,28,47,19,30,42,5,49],"responseType":"finish","internal_node_id":"0.0-4.0-4.0","time_elapsed":316129,"trial_index":13,"trial_type":"survey-likert","responses":"{\"Q0\":\"1\",\"Q1\":\"0\",\"Q2\":\"2\",\"Q3\":\"3\"}","rt":30290}],"__v":0}
{"_id":{"$oid":"5ca0081012c8600004840168"},"data":[{"participantID":"568sehxtms20zfhpcgvmaguvr4wp7twj","judgmentIndices":[1,0,3,2],"questionScores":[2398,null,null,2397,2413,null,8,22,2402,16,null,26],"questionIndices":[48,43,37,29,4,24,25,9,32,15,39,47],"responseType":"finish","internal_node_id":"0.0-0.0","time_elapsed":23809,"trial_index":0,"trial_type":"survey-multi-choice","responses":"{\"Q0\":\"I consent to participate\"}","rt":23730},{"participantID":"568sehxtms20zfhpcgvmaguvr4wp7twj","judgmentIndices":[1,0,3,2],"questionScores":[2398,null,null,2397,2413,null,8,22,2402,16,null,26],"questionIndices":[48,43,37,29,4,24,25,9,32,15,39,47],"responseType":"finish","internal_node_id":"0.0-1.0","time_elapsed":40253,"trial_index":1,"trial_type":"instructions","rt":15442,"view_history":"[{\"page_index\":0,\"viewing_time\":15441}]"},{"participantID":"568sehxtms20zfhpcgvmaguvr4wp7twj","judgmentIndices":[1,0,3,2],"questionScores":[2398,null,null,2397,2413,null,8,22,2402,16,null,26],"questionIndices":[48,43,37,29,4,24,25,9,32,15,39,47],"responseType":"finish","internal_node_id":"0.0-2.0-0.0","time_elapsed":80757,"trial_index":2,"trial_type":"survey-likert","responses":"{\"Q0\":\"4\",\"Q1\":\"3\",\"Q2\":\"4\",\"Q3\":\"4\"}","rt":39490},{"participantID":"568sehxtms20zfhpcgvmaguvr4wp7twj","judgmentIndices":[1,0,3,2],"questionScores":[2398,null,null,2397,2413,null,8,22,2402,16,null,26],"questionIndices":[48,43,37,29,4,24,25,9,32,15,39,47],"responseType":"finish","internal_node_id":"0.0-2.0-1.0","time_elapsed":102632,"trial_index":3,"trial_type":"survey-likert","responses":"{\"Q0\":\"4\",\"Q1\":\"5\",\"Q2\":\"2\",\"Q3\":\"5\"}","rt":20861},{"participantID":"568sehxtms20zfhpcgvmaguvr4wp7twj","judgmentIndices":[1,0,3,2],"questionScores":[2398,null,null,2397,2413,null,8,22,2402,16,null,26],"questionIndices":[48,43,37,29,4,24,25,9,32,15,39,47],"responseType":"finish","internal_node_id":"0.0-2.0-2.0","time_elapsed":118936,"trial_index":4,"trial_type":"survey-likert","responses":"{\"Q0\":\"6\",\"Q1\":\"3\",\"Q2\":\"3\",\"Q3\":\"3\"}","rt":15292},{"participantID":"568sehxtms20zfhpcgvmaguvr4wp7twj","judgmentIndices":[1,0,3,2],"questionScores":[2398,null,null,2397,2413,null,8,22,2402,16,null,26],"questionIndices":[48,43,37,29,4,24,25,9,32,15,39,47],"responseType":"finish","internal_node_id":"0.0-2.0-3.0","time_elapsed":151279,"trial_index":5,"trial_type":"survey-likert","responses":"{\"Q0\":\"1\",\"Q1\":\"4\",\"Q2\":\"4\",\"Q3\":\"6\"}","rt":31332},{"participantID":"568sehxtms20zfhpcgvmaguvr4wp7twj","judgmentIndices":[1,0,3,2],"questionScores":[2398,null,null,2397,2413,null,8,22,2402,16,null,26],"questionIndices":[48,43,37,29,4,24,25,9,32,15,39,47],"responseType":"finish","internal_node_id":"0.0-2.0-4.0","time_elapsed":169026,"trial_index":6,"trial_type":"survey-likert","responses":"{\"Q0\":\"6\",\"Q1\":\"0\",\"Q2\":\"0\",\"Q3\":\"0\"}","rt":16734},{"participantID":"568sehxtms20zfhpcgvmaguvr4wp7twj","judgmentIndices":[1,0,3,2],"questionScores":[2398,null,null,2397,2413,null,8,22,2402,16,null,26],"questionIndices":[48,43,37,29,4,24,25,9,32,15,39,47],"responseType":"finish","internal_node_id":"0.0-2.0-5.0","time_elapsed":193848,"trial_index":7,"trial_type":"survey-likert","responses":"{\"Q0\":\"4\",\"Q1\":\"2\",\"Q2\":\"0\",\"Q3\":\"0\"}","rt":23812},{"participantID":"568sehxtms20zfhpcgvmaguvr4wp7twj","judgmentIndices":[1,0,3,2],"questionScores":[2398,null,null,2397,2413,null,8,22,2402,16,null,26],"questionIndices":[48,43,37,29,4,24,25,9,32,15,39,47],"responseType":"finish","internal_node_id":"0.0-3.0","time_elapsed":228374,"trial_index":8,"trial_type":"survey-likert","responses":"{\"Q0\":\"2\",\"Q1\":\"6\",\"Q2\":\"6\",\"Q3\":\"6\",\"Q4\":\"6\"}","rt":33516},{"participantID":"568sehxtms20zfhpcgvmaguvr4wp7twj","judgmentIndices":[1,0,3,2],"questionScores":[2398,null,null,2397,2413,null,8,22,2402,16,null,26],"questionIndices":[48,43,37,29,4,24,25,9,32,15,39,47],"responseType":"finish","internal_node_id":"0.0-4.0-0.0","time_elapsed":254303,"trial_index":9,"trial_type":"survey-likert","responses":"{\"Q0\":\"0\",\"Q1\":\"6\",\"Q2\":\"1\",\"Q3\":\"6\"}","rt":24918},{"participantID":"568sehxtms20zfhpcgvmaguvr4wp7twj","judgmentIndices":[1,0,3,2],"questionScores":[2398,null,null,2397,2413,null,8,22,2402,16,null,26],"questionIndices":[48,43,37,29,4,24,25,9,32,15,39,47],"responseType":"finish","internal_node_id":"0.0-4.0-1.0","time_elapsed":272897,"trial_index":10,"trial_type":"survey-likert","responses":"{\"Q0\":\"3\",\"Q1\":\"3\",\"Q2\":\"1\",\"Q3\":\"3\"}","rt":17584},{"participantID":"568sehxtms20zfhpcgvmaguvr4wp7twj","judgmentIndices":[1,0,3,2],"questionScores":[2398,null,null,2397,2413,null,8,22,2402,16,null,26],"questionIndices":[48,43,37,29,4,24,25,9,32,15,39,47],"responseType":"finish","internal_node_id":"0.0-4.0-2.0","time_elapsed":305808,"trial_index":11,"trial_type":"survey-likert","responses":"{\"Q0\":\"2\",\"Q1\":\"6\",\"Q2\":\"3\",\"Q3\":\"6\"}","rt":31900},{"participantID":"568sehxtms20zfhpcgvmaguvr4wp7twj","judgmentIndices":[1,0,3,2],"questionScores":[2398,null,null,2397,2413,null,8,22,2402,16,null,26],"questionIndices":[48,43,37,29,4,24,25,9,32,15,39,47],"responseType":"finish","internal_node_id":"0.0-4.0-3.0","time_elapsed":331338,"trial_index":12,"trial_type":"survey-likert","responses":"{\"Q0\":\"0\",\"Q1\":\"4\",\"Q2\":\"4\",\"Q3\":\"6\"}","rt":24519},{"participantID":"568sehxtms20zfhpcgvmaguvr4wp7twj","judgmentIndices":[1,0,3,2],"questionScores":[2398,null,null,2397,2413,null,8,22,2402,16,null,26],"questionIndices":[48,43,37,29,4,24,25,9,32,15,39,47],"responseType":"finish","internal_node_id":"0.0-4.0-4.0","time_elapsed":351843,"trial_index":13,"trial_type":"survey-likert","responses":"{\"Q0\":\"1\",\"Q1\":\"2\",\"Q2\":\"2\",\"Q3\":\"2\"}","rt":19491}],"__v":0}
{"_id":{"$oid":"5ca0087e12c8600004840169"},"data":[{"participantID":"8s46kxng7xep1wd0gwcwd04xurnjjfxx","judgmentIndices":[0,1,3,2],"questionScores":[22,null,2417,22,null,2403,null,null,26,21,2418,2413],"questionIndices":[17,43,7,16,26,14,28,4,6,33,23,47],"responseType":"finish","internal_node_id":"0.0-0.0","time_elapsed":3332,"trial_index":0,"trial_type":"survey-multi-choice","responses":"{\"Q0\":\"I consent to participate\"}","rt":3312},{"participantID":"8s46kxng7xep1wd0gwcwd04xurnjjfxx","judgmentIndices":[0,1,3,2],"questionScores":[22,null,2417,22,null,2403,null,null,26,21,2418,2413],"questionIndices":[17,43,7,16,26,14,28,4,6,33,23,47],"responseType":"finish","internal_node_id":"0.0-1.0","time_elapsed":45611,"trial_index":1,"trial_type":"instructions","rt":41277,"view_history":"[{\"page_index\":0,\"viewing_time\":41276}]"},{"participantID":"8s46kxng7xep1wd0gwcwd04xurnjjfxx","judgmentIndices":[0,1,3,2],"questionScores":[22,null,2417,22,null,2403,null,null,26,21,2418,2413],"questionIndices":[17,43,7,16,26,14,28,4,6,33,23,47],"responseType":"finish","internal_node_id":"0.0-2.0-0.0","time_elapsed":73231,"trial_index":2,"trial_type":"survey-likert","responses":"{\"Q0\":\"6\",\"Q1\":\"2\",\"Q2\":\"6\",\"Q3\":\"3\"}","rt":26607},{"participantID":"8s46kxng7xep1wd0gwcwd04xurnjjfxx","judgmentIndices":[0,1,3,2],"questionScores":[22,null,2417,22,null,2403,null,null,26,21,2418,2413],"questionIndices":[17,43,7,16,26,14,28,4,6,33,23,47],"responseType":"finish","internal_node_id":"0.0-2.0-1.0","time_elapsed":100144,"trial_index":3,"trial_type":"survey-likert","responses":"{\"Q0\":\"5\",\"Q1\":\"0\",\"Q2\":\"3\",\"Q3\":\"3\"}","rt":25905},{"participantID":"8s46kxng7xep1wd0gwcwd04xurnjjfxx","judgmentIndices":[0,1,3,2],"questionScores":[22,null,2417,22,null,2403,null,null,26,21,2418,2413],"questionIndices":[17,43,7,16,26,14,28,4,6,33,23,47],"responseType":"finish","internal_node_id":"0.0-2.0-2.0","time_elapsed":117659,"trial_index":4,"trial_type":"survey-likert","responses":"{\"Q0\":\"2\",\"Q1\":\"1\",\"Q2\":\"0\",\"Q3\":\"3\"}","rt":16505},{"participantID":"8s46kxng7xep1wd0gwcwd04xurnjjfxx","judgmentIndices":[0,1,3,2],"questionScores":[22,null,2417,22,null,2403,null,null,26,21,2418,2413],"questionIndices":[17,43,7,16,26,14,28,4,6,33,23,47],"responseType":"finish","internal_node_id":"0.0-2.0-3.0","time_elapsed":136310,"trial_index":5,"trial_type":"survey-likert","responses":"{\"Q0\":\"3\",\"Q1\":\"0\",\"Q2\":\"1\",\"Q3\":\"1\"}","rt":17643},{"participantID":"8s46kxng7xep1wd0gwcwd04xurnjjfxx","judgmentIndices":[0,1,3,2],"questionScores":[22,null,2417,22,null,2403,null,null,26,21,2418,2413],"questionIndices":[17,43,7,16,26,14,28,4,6,33,23,47],"responseType":"finish","internal_node_id":"0.0-2.0-4.0","time_elapsed":154382,"trial_index":6,"trial_type":"survey-likert","responses":"{\"Q0\":\"3\",\"Q1\":\"1\",\"Q2\":\"4\",\"Q3\":\"3\"}","rt":17062},{"participantID":"8s46kxng7xep1wd0gwcwd04xurnjjfxx","judgmentIndices":[0,1,3,2],"questionScores":[22,null,2417,22,null,2403,null,null,26,21,2418,2413],"questionIndices":[17,43,7,16,26,14,28,4,6,33,23,47],"responseType":"finish","internal_node_id":"0.0-2.0-5.0","time_elapsed":182589,"trial_index":7,"trial_type":"survey-likert","responses":"{\"Q0\":\"3\",\"Q1\":\"0\",\"Q2\":\"2\",\"Q3\":\"4\"}","rt":27197},{"participantID":"8s46kxng7xep1wd0gwcwd04xurnjjfxx","judgmentIndices":[0,1,3,2],"questionScores":[22,null,2417,22,null,2403,null,null,26,21,2418,2413],"questionIndices":[17,43,7,16,26,14,28,4,6,33,23,47],"responseType":"finish","internal_node_id":"0.0-3.0","time_elapsed":206239,"trial_index":8,"trial_type":"survey-likert","responses":"{\"Q0\":\"1\",\"Q1\":\"0\",\"Q2\":\"0\",\"Q3\":\"1\",\"Q4\":\"6\"}","rt":22640},{"participantID":"8s46kxng7xep1wd0gwcwd04xurnjjfxx","judgmentIndices":[0,1,3,2],"questionScores":[22,null,2417,22,null,2403,null,null,26,21,2418,2413],"questionIndices":[17,43,7,16,26,14,28,4,6,33,23,47],"responseType":"finish","internal_node_id":"0.0-4.0-0.0","time_elapsed":256037,"trial_index":9,"trial_type":"survey-likert","responses":"{\"Q0\":\"4\",\"Q1\":\"1\",\"Q2\":\"1\",\"Q3\":\"5\"}","rt":48789},{"participantID":"8s46kxng7xep1wd0gwcwd04xurnjjfxx","judgmentIndices":[0,1,3,2],"questionScores":[22,null,2417,22,null,2403,null,null,26,21,2418,2413],"questionIndices":[17,43,7,16,26,14,28,4,6,33,23,47],"responseType":"finish","internal_node_id":"0.0-4.0-1.0","time_elapsed":278512,"trial_index":10,"trial_type":"survey-likert","responses":"{\"Q0\":\"4\",\"Q1\":\"0\",\"Q2\":\"2\",\"Q3\":\"6\"}","rt":21466},{"participantID":"8s46kxng7xep1wd0gwcwd04xurnjjfxx","judgmentIndices":[0,1,3,2],"questionScores":[22,null,2417,22,null,2403,null,null,26,21,2418,2413],"questionIndices":[17,43,7,16,26,14,28,4,6,33,23,47],"responseType":"finish","internal_node_id":"0.0-4.0-2.0","time_elapsed":295544,"trial_index":11,"trial_type":"survey-likert","responses":"{\"Q0\":\"3\",\"Q1\":\"0\",\"Q2\":\"1\",\"Q3\":\"0\"}","rt":16024},{"participantID":"8s46kxng7xep1wd0gwcwd04xurnjjfxx","judgmentIndices":[0,1,3,2],"questionScores":[22,null,2417,22,null,2403,null,null,26,21,2418,2413],"questionIndices":[17,43,7,16,26,14,28,4,6,33,23,47],"responseType":"finish","internal_node_id":"0.0-4.0-3.0","time_elapsed":312257,"trial_index":12,"trial_type":"survey-likert","responses":"{\"Q0\":\"1\",\"Q1\":\"0\",\"Q2\":\"1\",\"Q3\":\"0\"}","rt":15703},{"participantID":"8s46kxng7xep1wd0gwcwd04xurnjjfxx","judgmentIndices":[0,1,3,2],"questionScores":[22,null,2417,22,null,2403,null,null,26,21,2418,2413],"questionIndices":[17,43,7,16,26,14,28,4,6,33,23,47],"responseType":"finish","internal_node_id":"0.0-4.0-4.0","time_elapsed":328816,"trial_index":13,"trial_type":"survey-likert","responses":"{\"Q0\":\"6\",\"Q1\":\"1\",\"Q2\":\"5\",\"Q3\":\"6\"}","rt":15551}],"__v":0}
{"_id":{"$oid":"5ca0091a12c860000484016a"},"data":[{"participantID":"rq1e4egchuqt22scxbga9971xcgvec8u","judgmentIndices":[0,3,2,1],"questionScores":[27,null,null,30,18,2403,14,null,2407,null,2391,2422],"questionIndices":[21,29,4,25,43,36,0,48,37,20,27,18],"responseType":"finish","internal_node_id":"0.0-0.0","time_elapsed":9432,"trial_index":0,"trial_type":"survey-multi-choice","responses":"{\"Q0\":\"I consent to participate\"}","rt":9420},{"participantID":"rq1e4egchuqt22scxbga9971xcgvec8u","judgmentIndices":[0,3,2,1],"questionScores":[27,null,null,30,18,2403,14,null,2407,null,2391,2422],"questionIndices":[21,29,4,25,43,36,0,48,37,20,27,18],"responseType":"finish","internal_node_id":"0.0-1.0","time_elapsed":51121,"trial_index":1,"trial_type":"instructions","rt":40686,"view_history":"[{\"page_index\":0,\"viewing_time\":40685}]"},{"participantID":"rq1e4egchuqt22scxbga9971xcgvec8u","judgmentIndices":[0,3,2,1],"questionScores":[27,null,null,30,18,2403,14,null,2407,null,2391,2422],"questionIndices":[21,29,4,25,43,36,0,48,37,20,27,18],"responseType":"finish","internal_node_id":"0.0-2.0-0.0","time_elapsed":73744,"trial_index":2,"trial_type":"survey-likert","responses":"{\"Q0\":\"0\",\"Q1\":\"0\",\"Q2\":\"0\",\"Q3\":\"0\"}","rt":21608},{"participantID":"rq1e4egchuqt22scxbga9971xcgvec8u","judgmentIndices":[0,3,2,1],"questionScores":[27,null,null,30,18,2403,14,null,2407,null,2391,2422],"questionIndices":[21,29,4,25,43,36,0,48,37,20,27,18],"responseType":"finish","internal_node_id":"0.0-2.0-1.0","time_elapsed":92258,"trial_index":3,"trial_type":"survey-likert","responses":"{\"Q0\":\"0\",\"Q1\":\"0\",\"Q2\":\"0\",\"Q3\":\"0\"}","rt":17503},{"participantID":"rq1e4egchuqt22scxbga9971xcgvec8u","judgmentIndices":[0,3,2,1],"questionScores":[27,null,null,30,18,2403,14,null,2407,null,2391,2422],"questionIndices":[21,29,4,25,43,36,0,48,37,20,27,18],"responseType":"finish","internal_node_id":"0.0-2.0-2.0","time_elapsed":109325,"trial_index":4,"trial_type":"survey-likert","responses":"{\"Q0\":\"0\",\"Q1\":\"0\",\"Q2\":\"0\",\"Q3\":\"0\"}","rt":16059},{"participantID":"rq1e4egchuqt22scxbga9971xcgvec8u","judgmentIndices":[0,3,2,1],"questionScores":[27,null,null,30,18,2403,14,null,2407,null,2391,2422],"questionIndices":[21,29,4,25,43,36,0,48,37,20,27,18],"responseType":"finish","internal_node_id":"0.0-2.0-3.0","time_elapsed":133698,"trial_index":5,"trial_type":"survey-likert","responses":"{\"Q0\":\"0\",\"Q1\":\"1\",\"Q2\":\"3\",\"Q3\":\"4\"}","rt":23368},{"participantID":"rq1e4egchuqt22scxbga9971xcgvec8u","judgmentIndices":[0,3,2,1],"questionScores":[27,null,null,30,18,2403,14,null,2407,null,2391,2422],"questionIndices":[21,29,4,25,43,36,0,48,37,20,27,18],"responseType":"finish","internal_node_id":"0.0-2.0-4.0","time_elapsed":181289,"trial_index":6,"trial_type":"survey-likert","responses":"{\"Q0\":\"5\",\"Q1\":\"4\",\"Q2\":\"4\",\"Q3\":\"0\"}","rt":46582},{"participantID":"rq1e4egchuqt22scxbga9971xcgvec8u","judgmentIndices":[0,3,2,1],"questionScores":[27,null,null,30,18,2403,14,null,2407,null,2391,2422],"questionIndices":[21,29,4,25,43,36,0,48,37,20,27,18],"responseType":"finish","internal_node_id":"0.0-2.0-5.0","time_elapsed":227333,"trial_index":7,"trial_type":"survey-likert","responses":"{\"Q0\":\"0\",\"Q1\":\"0\",\"Q2\":\"0\",\"Q3\":\"0\"}","rt":45034},{"participantID":"rq1e4egchuqt22scxbga9971xcgvec8u","judgmentIndices":[0,3,2,1],"questionScores":[27,null,null,30,18,2403,14,null,2407,null,2391,2422],"questionIndices":[21,29,4,25,43,36,0,48,37,20,27,18],"responseType":"finish","internal_node_id":"0.0-3.0","time_elapsed":245790,"trial_index":8,"trial_type":"survey-likert","responses":"{\"Q0\":\"0\",\"Q1\":\"0\",\"Q2\":\"0\",\"Q3\":\"0\",\"Q4\":\"0\"}","rt":17442},{"participantID":"rq1e4egchuqt22scxbga9971xcgvec8u","judgmentIndices":[0,3,2,1],"questionScores":[27,null,null,30,18,2403,14,null,2407,null,2391,2422],"questionIndices":[21,29,4,25,43,36,0,48,37,20,27,18],"responseType":"finish","internal_node_id":"0.0-4.0-0.0","time_elapsed":263413,"trial_index":9,"trial_type":"survey-likert","responses":"{\"Q0\":\"0\",\"Q1\":\"0\",\"Q2\":\"0\",\"Q3\":\"0\"}","rt":16618},{"participantID":"rq1e4egchuqt22scxbga9971xcgvec8u","judgmentIndices":[0,3,2,1],"questionScores":[27,null,null,30,18,2403,14,null,2407,null,2391,2422],"questionIndices":[21,29,4,25,43,36,0,48,37,20,27,18],"responseType":"finish","internal_node_id":"0.0-4.0-1.0","time_elapsed":300251,"trial_index":10,"trial_type":"survey-likert","responses":"{\"Q0\":\"5\",\"Q1\":\"4\",\"Q2\":\"4\",\"Q3\":\"2\"}","rt":35828},{"participantID":"rq1e4egchuqt22scxbga9971xcgvec8u","judgmentIndices":[0,3,2,1],"questionScores":[27,null,null,30,18,2403,14,null,2407,null,2391,2422],"questionIndices":[21,29,4,25,43,36,0,48,37,20,27,18],"responseType":"finish","internal_node_id":"0.0-4.0-2.0","time_elapsed":396003,"trial_index":11,"trial_type":"survey-likert","responses":"{\"Q0\":\"0\",\"Q1\":\"0\",\"Q2\":\"0\",\"Q3\":\"0\"}","rt":94744},{"participantID":"rq1e4egchuqt22scxbga9971xcgvec8u","judgmentIndices":[0,3,2,1],"questionScores":[27,null,null,30,18,2403,14,null,2407,null,2391,2422],"questionIndices":[21,29,4,25,43,36,0,48,37,20,27,18],"responseType":"finish","internal_node_id":"0.0-4.0-3.0","time_elapsed":414597,"trial_index":12,"trial_type":"survey-likert","responses":"{\"Q0\":\"2\",\"Q1\":\"4\",\"Q2\":\"4\",\"Q3\":\"0\"}","rt":17587},{"participantID":"rq1e4egchuqt22scxbga9971xcgvec8u","judgmentIndices":[0,3,2,1],"questionScores":[27,null,null,30,18,2403,14,null,2407,null,2391,2422],"questionIndices":[21,29,4,25,43,36,0,48,37,20,27,18],"responseType":"finish","internal_node_id":"0.0-4.0-4.0","time_elapsed":429356,"trial_index":13,"trial_type":"survey-likert","responses":"{\"Q0\":\"0\",\"Q1\":\"0\",\"Q2\":\"0\",\"Q3\":\"0\"}","rt":13750}],"__v":0}
{"_id":{"$oid":"5ca0092f12c860000484016b"},"data":[{"participantID":"dc4mlafsmav63prplqre9hkty4du04pc","judgmentIndices":[2,0,1,3],"questionScores":[34,2416,null,18,null,2417,null,null,24,19,2414,2405],"questionIndices":[39,26,25,6,24,22,49,40,5,43,34,14],"responseType":"finish","internal_node_id":"0.0-0.0","time_elapsed":80639,"trial_index":0,"trial_type":"survey-multi-choice","responses":"{\"Q0\":\"I consent to participate\"}","rt":80627},{"participantID":"dc4mlafsmav63prplqre9hkty4du04pc","judgmentIndices":[2,0,1,3],"questionScores":[34,2416,null,18,null,2417,null,null,24,19,2414,2405],"questionIndices":[39,26,25,6,24,22,49,40,5,43,34,14],"responseType":"finish","internal_node_id":"0.0-1.0","time_elapsed":110153,"trial_index":1,"trial_type":"instructions","rt":28511,"view_history":"[{\"page_index\":0,\"viewing_time\":28509}]"},{"participantID":"dc4mlafsmav63prplqre9hkty4du04pc","judgmentIndices":[2,0,1,3],"questionScores":[34,2416,null,18,null,2417,null,null,24,19,2414,2405],"questionIndices":[39,26,25,6,24,22,49,40,5,43,34,14],"responseType":"finish","internal_node_id":"0.0-2.0-0.0","time_elapsed":141046,"trial_index":2,"trial_type":"survey-likert","responses":"{\"Q0\":\"2\",\"Q1\":\"5\",\"Q2\":\"1\",\"Q3\":\"2\"}","rt":29884},{"participantID":"dc4mlafsmav63prplqre9hkty4du04pc","judgmentIndices":[2,0,1,3],"questionScores":[34,2416,null,18,null,2417,null,null,24,19,2414,2405],"questionIndices":[39,26,25,6,24,22,49,40,5,43,34,14],"responseType":"finish","internal_node_id":"0.0-2.0-1.0","time_elapsed":166697,"trial_index":3,"trial_type":"survey-likert","responses":"{\"Q0\":\"3\",\"Q1\":\"5\",\"Q2\":\"1\",\"Q3\":\"3\"}","rt":24642},{"participantID":"dc4mlafsmav63prplqre9hkty4du04pc","judgmentIndices":[2,0,1,3],"questionScores":[34,2416,null,18,null,2417,null,null,24,19,2414,2405],"questionIndices":[39,26,25,6,24,22,49,40,5,43,34,14],"responseType":"finish","internal_node_id":"0.0-2.0-2.0","time_elapsed":189706,"trial_index":4,"trial_type":"survey-likert","responses":"{\"Q0\":\"4\",\"Q1\":\"5\",\"Q2\":\"3\",\"Q3\":\"2\"}","rt":21999},{"participantID":"dc4mlafsmav63prplqre9hkty4du04pc","judgmentIndices":[2,0,1,3],"questionScores":[34,2416,null,18,null,2417,null,null,24,19,2414,2405],"questionIndices":[39,26,25,6,24,22,49,40,5,43,34,14],"responseType":"finish","internal_node_id":"0.0-2.0-3.0","time_elapsed":227313,"trial_index":5,"trial_type":"survey-likert","responses":"{\"Q0\":\"6\",\"Q1\":\"6\",\"Q2\":\"1\",\"Q3\":\"4\"}","rt":36599},{"participantID":"dc4mlafsmav63prplqre9hkty4du04pc","judgmentIndices":[2,0,1,3],"questionScores":[34,2416,null,18,null,2417,null,null,24,19,2414,2405],"questionIndices":[39,26,25,6,24,22,49,40,5,43,34,14],"responseType":"finish","internal_node_id":"0.0-2.0-4.0","time_elapsed":282057,"trial_index":6,"trial_type":"survey-likert","responses":"{\"Q0\":\"0\",\"Q1\":\"2\",\"Q2\":\"0\",\"Q3\":\"1\"}","rt":53736},{"participantID":"dc4mlafsmav63prplqre9hkty4du04pc","judgmentIndices":[2,0,1,3],"questionScores":[34,2416,null,18,null,2417,null,null,24,19,2414,2405],"questionIndices":[39,26,25,6,24,22,49,40,5,43,34,14],"responseType":"finish","internal_node_id":"0.0-2.0-5.0","time_elapsed":308009,"trial_index":7,"trial_type":"survey-likert","responses":"{\"Q0\":\"1\",\"Q1\":\"4\",\"Q2\":\"0\",\"Q3\":\"1\"}","rt":24944},{"participantID":"dc4mlafsmav63prplqre9hkty4du04pc","judgmentIndices":[2,0,1,3],"questionScores":[34,2416,null,18,null,2417,null,null,24,19,2414,2405],"questionIndices":[39,26,25,6,24,22,49,40,5,43,34,14],"responseType":"finish","internal_node_id":"0.0-3.0","time_elapsed":336798,"trial_index":8,"trial_type":"survey-likert","responses":"{\"Q0\":\"2\",\"Q1\":\"4\",\"Q2\":\"3\",\"Q3\":\"2\",\"Q4\":\"6\"}","rt":27780},{"participantID":"dc4mlafsmav63prplqre9hkty4du04pc","judgmentIndices":[2,0,1,3],"questionScores":[34,2416,null,18,null,2417,null,null,24,19,2414,2405],"questionIndices":[39,26,25,6,24,22,49,40,5,43,34,14],"responseType":"finish","internal_node_id":"0.0-4.0-0.0","time_elapsed":354457,"trial_index":9,"trial_type":"survey-likert","responses":"{\"Q0\":\"1\",\"Q1\":\"2\",\"Q2\":\"1\",\"Q3\":\"3\"}","rt":16651},{"participantID":"dc4mlafsmav63prplqre9hkty4du04pc","judgmentIndices":[2,0,1,3],"questionScores":[34,2416,null,18,null,2417,null,null,24,19,2414,2405],"questionIndices":[39,26,25,6,24,22,49,40,5,43,34,14],"responseType":"finish","internal_node_id":"0.0-4.0-1.0","time_elapsed":370705,"trial_index":10,"trial_type":"survey-likert","responses":"{\"Q0\":\"5\",\"Q1\":\"5\",\"Q2\":\"1\",\"Q3\":\"2\"}","rt":15239},{"participantID":"dc4mlafsmav63prplqre9hkty4du04pc","judgmentIndices":[2,0,1,3],"questionScores":[34,2416,null,18,null,2417,null,null,24,19,2414,2405],"questionIndices":[39,26,25,6,24,22,49,40,5,43,34,14],"responseType":"finish","internal_node_id":"0.0-4.0-2.0","time_elapsed":389224,"trial_index":11,"trial_type":"survey-likert","responses":"{\"Q0\":\"4\",\"Q1\":\"4\",\"Q2\":\"1\",\"Q3\":\"2\"}","rt":17510},{"participantID":"dc4mlafsmav63prplqre9hkty4du04pc","judgmentIndices":[2,0,1,3],"questionScores":[34,2416,null,18,null,2417,null,null,24,19,2414,2405],"questionIndices":[39,26,25,6,24,22,49,40,5,43,34,14],"responseType":"finish","internal_node_id":"0.0-4.0-3.0","time_elapsed":416257,"trial_index":12,"trial_type":"survey-likert","responses":"{\"Q0\":\"5\",\"Q1\":\"3\",\"Q2\":\"4\",\"Q3\":\"3\"}","rt":26029},{"participantID":"dc4mlafsmav63prplqre9hkty4du04pc","judgmentIndices":[2,0,1,3],"questionScores":[34,2416,null,18,null,2417,null,null,24,19,2414,2405],"questionIndices":[39,26,25,6,24,22,49,40,5,43,34,14],"responseType":"finish","internal_node_id":"0.0-4.0-4.0","time_elapsed":436272,"trial_index":13,"trial_type":"survey-likert","responses":"{\"Q0\":\"2\",\"Q1\":\"2\",\"Q2\":\"1\",\"Q3\":\"2\"}","rt":19006}],"__v":0}
{"_id":{"$oid":"5ca0093a12c860000484016c"},"data":[{"participantID":"0q8vt05mumd1fxpwvvlnk1nebkuvgbnm","judgmentIndices":[3,2,1,0],"questionScores":[null,null,null,2399,2402,37,2413,null,27,2411,23,33],"questionIndices":[15,4,1,42,28,23,35,36,21,19,6,49],"responseType":"finish","internal_node_id":"0.0-0.0","time_elapsed":6354,"trial_index":0,"trial_type":"survey-multi-choice","responses":"{\"Q0\":\"I consent to participate\"}","rt":6345},{"participantID":"0q8vt05mumd1fxpwvvlnk1nebkuvgbnm","judgmentIndices":[3,2,1,0],"questionScores":[null,null,null,2399,2402,37,2413,null,27,2411,23,33],"questionIndices":[15,4,1,42,28,23,35,36,21,19,6,49],"responseType":"finish","internal_node_id":"0.0-1.0","time_elapsed":224785,"trial_index":1,"trial_type":"instructions","rt":217429,"view_history":"[{\"page_index\":0,\"viewing_time\":217428}]"},{"participantID":"0q8vt05mumd1fxpwvvlnk1nebkuvgbnm","judgmentIndices":[3,2,1,0],"questionScores":[null,null,null,2399,2402,37,2413,null,27,2411,23,33],"questionIndices":[15,4,1,42,28,23,35,36,21,19,6,49],"responseType":"finish","internal_node_id":"0.0-2.0-0.0","time_elapsed":261697,"trial_index":2,"trial_type":"survey-likert","responses":"{\"Q0\":\"1\",\"Q1\":\"3\",\"Q2\":\"1\",\"Q3\":\"1\"}","rt":35873},{"participantID":"0q8vt05mumd1fxpwvvlnk1nebkuvgbnm","judgmentIndices":[3,2,1,0],"questionScores":[null,null,null,2399,2402,37,2413,null,27,2411,23,33],"questionIndices":[15,4,1,42,28,23,35,36,21,19,6,49],"responseType":"finish","internal_node_id":"0.0-2.0-1.0","time_elapsed":278352,"trial_index":3,"trial_type":"survey-likert","responses":"{\"Q0\":\"0\",\"Q1\":\"0\",\"Q2\":\"5\",\"Q3\":\"4\"}","rt":15647},{"participantID":"0q8vt05mumd1fxpwvvlnk1nebkuvgbnm","judgmentIndices":[3,2,1,0],"questionScores":[null,null,null,2399,2402,37,2413,null,27,2411,23,33],"questionIndices":[15,4,1,42,28,23,35,36,21,19,6,49],"responseType":"finish","internal_node_id":"0.0-2.0-2.0","time_elapsed":402911,"trial_index":4,"trial_type":"survey-likert","responses":"{\"Q0\":\"0\",\"Q1\":\"0\",\"Q2\":\"5\",\"Q3\":\"5\"}","rt":123551},{"participantID":"0q8vt05mumd1fxpwvvlnk1nebkuvgbnm","judgmentIndices":[3,2,1,0],"questionScores":[null,null,null,2399,2402,37,2413,null,27,2411,23,33],"questionIndices":[15,4,1,42,28,23,35,36,21,19,6,49],"responseType":"finish","internal_node_id":"0.0-2.0-3.0","time_elapsed":427855,"trial_index":5,"trial_type":"survey-likert","responses":"{\"Q0\":\"2\",\"Q1\":\"1\",\"Q2\":\"2\",\"Q3\":\"5\"}","rt":23936},{"participantID":"0q8vt05mumd1fxpwvvlnk1nebkuvgbnm","judgmentIndices":[3,2,1,0],"questionScores":[null,null,null,2399,2402,37,2413,null,27,2411,23,33],"questionIndices":[15,4,1,42,28,23,35,36,21,19,6,49],"responseType":"finish","internal_node_id":"0.0-2.0-4.0","time_elapsed":469903,"trial_index":6,"trial_type":"survey-likert","responses":"{\"Q0\":\"0\",\"Q1\":\"0\",\"Q2\":\"6\",\"Q3\":\"2\"}","rt":41040},{"participantID":"0q8vt05mumd1fxpwvvlnk1nebkuvgbnm","judgmentIndices":[3,2,1,0],"questionScores":[null,null,null,2399,2402,37,2413,null,27,2411,23,33],"questionIndices":[15,4,1,42,28,23,35,36,21,19,6,49],"responseType":"finish","internal_node_id":"0.0-2.0-5.0","time_elapsed":591886,"trial_index":7,"trial_type":"survey-likert","responses":"{\"Q0\":\"0\",\"Q1\":\"1\",\"Q2\":\"5\",\"Q3\":\"2\"}","rt":120974},{"participantID":"0q8vt05mumd1fxpwvvlnk1nebkuvgbnm","judgmentIndices":[3,2,1,0],"questionScores":[null,null,null,2399,2402,37,2413,null,27,2411,23,33],"questionIndices":[15,4,1,42,28,23,35,36,21,19,6,49],"responseType":"finish","internal_node_id":"0.0-3.0","time_elapsed":618342,"trial_index":8,"trial_type":"survey-likert","responses":"{\"Q0\":\"3\",\"Q1\":\"4\",\"Q2\":\"5\",\"Q3\":\"5\",\"Q4\":\"6\"}","rt":25446},{"participantID":"0q8vt05mumd1fxpwvvlnk1nebkuvgbnm","judgmentIndices":[3,2,1,0],"questionScores":[null,null,null,2399,2402,37,2413,null,27,2411,23,33],"questionIndices":[15,4,1,42,28,23,35,36,21,19,6,49],"responseType":"finish","internal_node_id":"0.0-4.0-0.0","time_elapsed":634742,"trial_index":9,"trial_type":"survey-likert","responses":"{\"Q0\":\"0\",\"Q1\":\"0\",\"Q2\":\"6\",\"Q3\":\"3\"}","rt":15393},{"participantID":"0q8vt05mumd1fxpwvvlnk1nebkuvgbnm","judgmentIndices":[3,2,1,0],"questionScores":[null,null,null,2399,2402,37,2413,null,27,2411,23,33],"questionIndices":[15,4,1,42,28,23,35,36,21,19,6,49],"responseType":"finish","internal_node_id":"0.0-4.0-1.0","time_elapsed":649518,"trial_index":10,"trial_type":"survey-likert","responses":"{\"Q0\":\"0\",\"Q1\":\"1\",\"Q2\":\"6\",\"Q3\":\"2\"}","rt":13769},{"participantID":"0q8vt05mumd1fxpwvvlnk1nebkuvgbnm","judgmentIndices":[3,2,1,0],"questionScores":[null,null,null,2399,2402,37,2413,null,27,2411,23,33],"questionIndices":[15,4,1,42,28,23,35,36,21,19,6,49],"responseType":"finish","internal_node_id":"0.0-4.0-2.0","time_elapsed":675198,"trial_index":11,"trial_type":"survey-likert","responses":"{\"Q0\":\"0\",\"Q1\":\"0\",\"Q2\":\"0\",\"Q3\":\"4\"}","rt":24672},{"participantID":"0q8vt05mumd1fxpwvvlnk1nebkuvgbnm","judgmentIndices":[3,2,1,0],"questionScores":[null,null,null,2399,2402,37,2413,null,27,2411,23,33],"questionIndices":[15,4,1,42,28,23,35,36,21,19,6,49],"responseType":"finish","internal_node_id":"0.0-4.0-3.0","time_elapsed":695613,"trial_index":12,"trial_type":"survey-likert","responses":"{\"Q0\":\"3\",\"Q1\":\"5\",\"Q2\":\"5\",\"Q3\":\"4\"}","rt":19408},{"participantID":"0q8vt05mumd1fxpwvvlnk1nebkuvgbnm","judgmentIndices":[3,2,1,0],"questionScores":[null,null,null,2399,2402,37,2413,null,27,2411,23,33],"questionIndices":[15,4,1,42,28,23,35,36,21,19,6,49],"responseType":"finish","internal_node_id":"0.0-4.0-4.0","time_elapsed":732765,"trial_index":13,"trial_type":"survey-likert","responses":"{\"Q0\":\"0\",\"Q1\":\"0\",\"Q2\":\"2\",\"Q3\":\"6\"}","rt":36144}],"__v":0}
{"_id":{"$oid":"5ca0093b12c860000484016d"},"data":[{"participantID":"0eehu4dchdztq7f2fwfxaw6hm7swg1vv","judgmentIndices":[2,3,1,0],"questionScores":[51,2405,null,2414,null,2405,24,19,null,null,27,2414],"questionIndices":[26,24,27,23,14,40,49,9,25,29,6,33],"responseType":"finish","internal_node_id":"0.0-0.0","time_elapsed":15813,"trial_index":0,"trial_type":"survey-multi-choice","responses":"{\"Q0\":\"I consent to participate\"}","rt":15803},{"participantID":"0eehu4dchdztq7f2fwfxaw6hm7swg1vv","judgmentIndices":[2,3,1,0],"questionScores":[51,2405,null,2414,null,2405,24,19,null,null,27,2414],"questionIndices":[26,24,27,23,14,40,49,9,25,29,6,33],"responseType":"finish","internal_node_id":"0.0-1.0","time_elapsed":27858,"trial_index":1,"trial_type":"instructions","rt":11041,"view_history":"[{\"page_index\":0,\"viewing_time\":11041}]"},{"participantID":"0eehu4dchdztq7f2fwfxaw6hm7swg1vv","judgmentIndices":[2,3,1,0],"questionScores":[51,2405,null,2414,null,2405,24,19,null,null,27,2414],"questionIndices":[26,24,27,23,14,40,49,9,25,29,6,33],"responseType":"finish","internal_node_id":"0.0-2.0-0.0","time_elapsed":59779,"trial_index":2,"trial_type":"survey-likert","responses":"{\"Q0\":\"3\",\"Q1\":\"2\",\"Q2\":\"0\",\"Q3\":\"4\"}","rt":30910},{"participantID":"0eehu4dchdztq7f2fwfxaw6hm7swg1vv","judgmentIndices":[2,3,1,0],"questionScores":[51,2405,null,2414,null,2405,24,19,null,null,27,2414],"questionIndices":[26,24,27,23,14,40,49,9,25,29,6,33],"responseType":"finish","internal_node_id":"0.0-2.0-1.0","time_elapsed":81035,"trial_index":3,"trial_type":"survey-likert","responses":"{\"Q0\":\"0\",\"Q1\":\"0\",\"Q2\":\"0\",\"Q3\":\"4\"}","rt":20250},{"participantID":"0eehu4dchdztq7f2fwfxaw6hm7swg1vv","judgmentIndices":[2,3,1,0],"questionScores":[51,2405,null,2414,null,2405,24,19,null,null,27,2414],"questionIndices":[26,24,27,23,14,40,49,9,25,29,6,33],"responseType":"finish","internal_node_id":"0.0-2.0-2.0","time_elapsed":102098,"trial_index":4,"trial_type":"survey-likert","responses":"{\"Q0\":\"5\",\"Q1\":\"3\",\"Q2\":\"5\",\"Q3\":\"3\"}","rt":20054},{"participantID":"0eehu4dchdztq7f2fwfxaw6hm7swg1vv","judgmentIndices":[2,3,1,0],"questionScores":[51,2405,null,2414,null,2405,24,19,null,null,27,2414],"questionIndices":[26,24,27,23,14,40,49,9,25,29,6,33],"responseType":"finish","internal_node_id":"0.0-2.0-3.0","time_elapsed":121942,"trial_index":5,"trial_type":"survey-likert","responses":"{\"Q0\":\"0\",\"Q1\":\"0\",\"Q2\":\"1\",\"Q3\":\"5\"}","rt":18836},{"participantID":"0eehu4dchdztq7f2fwfxaw6hm7swg1vv","judgmentIndices":[2,3,1,0],"questionScores":[51,2405,null,2414,null,2405,24,19,null,null,27,2414],"questionIndices":[26,24,27,23,14,40,49,9,25,29,6,33],"responseType":"finish","internal_node_id":"0.0-2.0-4.0","time_elapsed":135933,"trial_index":6,"trial_type":"survey-likert","responses":"{\"Q0\":\"0\",\"Q1\":\"0\",\"Q2\":\"1\",\"Q3\":\"4\"}","rt":12982},{"participantID":"0eehu4dchdztq7f2fwfxaw6hm7swg1vv","judgmentIndices":[2,3,1,0],"questionScores":[51,2405,null,2414,null,2405,24,19,null,null,27,2414],"questionIndices":[26,24,27,23,14,40,49,9,25,29,6,33],"responseType":"finish","internal_node_id":"0.0-2.0-5.0","time_elapsed":150972,"trial_index":7,"trial_type":"survey-likert","responses":"{\"Q0\":\"0\",\"Q1\":\"3\",\"Q2\":\"0\",\"Q3\":\"1\"}","rt":14035},{"participantID":"0eehu4dchdztq7f2fwfxaw6hm7swg1vv","judgmentIndices":[2,3,1,0],"questionScores":[51,2405,null,2414,null,2405,24,19,null,null,27,2414],"questionIndices":[26,24,27,23,14,40,49,9,25,29,6,33],"responseType":"finish","internal_node_id":"0.0-3.0","time_elapsed":179572,"trial_index":8,"trial_type":"survey-likert","responses":"{\"Q0\":\"1\",\"Q1\":\"1\",\"Q2\":\"0\",\"Q3\":\"4\",\"Q4\":\"6\"}","rt":27590},{"participantID":"0eehu4dchdztq7f2fwfxaw6hm7swg1vv","judgmentIndices":[2,3,1,0],"questionScores":[51,2405,null,2414,null,2405,24,19,null,null,27,2414],"questionIndices":[26,24,27,23,14,40,49,9,25,29,6,33],"responseType":"finish","internal_node_id":"0.0-4.0-0.0","time_elapsed":199675,"trial_index":9,"trial_type":"survey-likert","responses":"{\"Q0\":\"5\",\"Q1\":\"2\",\"Q2\":\"0\",\"Q3\":\"6\"}","rt":19098},{"participantID":"0eehu4dchdztq7f2fwfxaw6hm7swg1vv","judgmentIndices":[2,3,1,0],"questionScores":[51,2405,null,2414,null,2405,24,19,null,null,27,2414],"questionIndices":[26,24,27,23,14,40,49,9,25,29,6,33],"responseType":"finish","internal_node_id":"0.0-4.0-1.0","time_elapsed":215980,"trial_index":10,"trial_type":"survey-likert","responses":"{\"Q0\":\"0\",\"Q1\":\"0\",\"Q2\":\"0\",\"Q3\":\"3\"}","rt":15302},{"participantID":"0eehu4dchdztq7f2fwfxaw6hm7swg1vv","judgmentIndices":[2,3,1,0],"questionScores":[51,2405,null,2414,null,2405,24,19,null,null,27,2414],"questionIndices":[26,24,27,23,14,40,49,9,25,29,6,33],"responseType":"finish","internal_node_id":"0.0-4.0-2.0","time_elapsed":234135,"trial_index":11,"trial_type":"survey-likert","responses":"{\"Q0\":\"5\",\"Q1\":\"2\",\"Q2\":\"0\",\"Q3\":\"6\"}","rt":17148},{"participantID":"0eehu4dchdztq7f2fwfxaw6hm7swg1vv","judgmentIndices":[2,3,1,0],"questionScores":[51,2405,null,2414,null,2405,24,19,null,null,27,2414],"questionIndices":[26,24,27,23,14,40,49,9,25,29,6,33],"responseType":"finish","internal_node_id":"0.0-4.0-3.0","time_elapsed":259574,"trial_index":12,"trial_type":"survey-likert","responses":"{\"Q0\":\"6\",\"Q1\":\"1\",\"Q2\":\"5\",\"Q3\":\"4\"}","rt":24435},{"participantID":"0eehu4dchdztq7f2fwfxaw6hm7swg1vv","judgmentIndices":[2,3,1,0],"questionScores":[51,2405,null,2414,null,2405,24,19,null,null,27,2414],"questionIndices":[26,24,27,23,14,40,49,9,25,29,6,33],"responseType":"finish","internal_node_id":"0.0-4.0-4.0","time_elapsed":272036,"trial_index":13,"trial_type":"survey-likert","responses":"{\"Q0\":\"0\",\"Q1\":\"0\",\"Q2\":\"0\",\"Q3\":\"6\"}","rt":11452}],"__v":0}
{"_id":{"$oid":"5ca0096e12c860000484016e"},"data":[{"participantID":"qvky3vrndv46a4j4spswt0bohm1k36aj","judgmentIndices":[0,2,3,1],"questionScores":[22,2409,2397,30,2405,null,null,null,17,2413,null,20],"questionIndices":[41,1,7,5,35,47,42,10,14,33,39,16],"responseType":"finish","internal_node_id":"0.0-0.0","time_elapsed":6983,"trial_index":0,"trial_type":"survey-multi-choice","responses":"{\"Q0\":\"I consent to participate\"}","rt":6955},{"participantID":"qvky3vrndv46a4j4spswt0bohm1k36aj","judgmentIndices":[0,2,3,1],"questionScores":[22,2409,2397,30,2405,null,null,null,17,2413,null,20],"questionIndices":[41,1,7,5,35,47,42,10,14,33,39,16],"responseType":"finish","internal_node_id":"0.0-1.0","time_elapsed":27639,"trial_index":1,"trial_type":"instructions","rt":19654,"view_history":"[{\"page_index\":0,\"viewing_time\":19652}]"},{"participantID":"qvky3vrndv46a4j4spswt0bohm1k36aj","judgmentIndices":[0,2,3,1],"questionScores":[22,2409,2397,30,2405,null,null,null,17,2413,null,20],"questionIndices":[41,1,7,5,35,47,42,10,14,33,39,16],"responseType":"finish","internal_node_id":"0.0-2.0-0.0","time_elapsed":58076,"trial_index":2,"trial_type":"survey-likert","responses":"{\"Q0\":\"4\",\"Q1\":\"2\",\"Q2\":\"2\",\"Q3\":\"0\"}","rt":29424},{"participantID":"qvky3vrndv46a4j4spswt0bohm1k36aj","judgmentIndices":[0,2,3,1],"questionScores":[22,2409,2397,30,2405,null,null,null,17,2413,null,20],"questionIndices":[41,1,7,5,35,47,42,10,14,33,39,16],"responseType":"finish","internal_node_id":"0.0-2.0-1.0","time_elapsed":82603,"trial_index":3,"trial_type":"survey-likert","responses":"{\"Q0\":\"3\",\"Q1\":\"1\",\"Q2\":\"4\",\"Q3\":\"2\"}","rt":23515},{"participantID":"qvky3vrndv46a4j4spswt0bohm1k36aj","judgmentIndices":[0,2,3,1],"questionScores":[22,2409,2397,30,2405,null,null,null,17,2413,null,20],"questionIndices":[41,1,7,5,35,47,42,10,14,33,39,16],"responseType":"finish","internal_node_id":"0.0-2.0-2.0","time_elapsed":108900,"trial_index":4,"trial_type":"survey-likert","responses":"{\"Q0\":\"1\",\"Q1\":\"3\",\"Q2\":\"1\",\"Q3\":\"3\"}","rt":25283},{"participantID":"qvky3vrndv46a4j4spswt0bohm1k36aj","judgmentIndices":[0,2,3,1],"questionScores":[22,2409,2397,30,2405,null,null,null,17,2413,null,20],"questionIndices":[41,1,7,5,35,47,42,10,14,33,39,16],"responseType":"finish","internal_node_id":"0.0-2.0-3.0","time_elapsed":131953,"trial_index":5,"trial_type":"survey-likert","responses":"{\"Q0\":\"1\",\"Q1\":\"2\",\"Q2\":\"1\",\"Q3\":\"0\"}","rt":22036},{"participantID":"qvky3vrndv46a4j4spswt0bohm1k36aj","judgmentIndices":[0,2,3,1],"questionScores":[22,2409,2397,30,2405,null,null,null,17,2413,null,20],"questionIndices":[41,1,7,5,35,47,42,10,14,33,39,16],"responseType":"finish","internal_node_id":"0.0-2.0-4.0","time_elapsed":156512,"trial_index":6,"trial_type":"survey-likert","responses":"{\"Q0\":\"3\",\"Q1\":\"3\",\"Q2\":\"3\",\"Q3\":\"4\"}","rt":23541},{"participantID":"qvky3vrndv46a4j4spswt0bohm1k36aj","judgmentIndices":[0,2,3,1],"questionScores":[22,2409,2397,30,2405,null,null,null,17,2413,null,20],"questionIndices":[41,1,7,5,35,47,42,10,14,33,39,16],"responseType":"finish","internal_node_id":"0.0-2.0-5.0","time_elapsed":179030,"trial_index":7,"trial_type":"survey-likert","responses":"{\"Q0\":\"1\",\"Q1\":\"2\",\"Q2\":\"0\",\"Q3\":\"1\"}","rt":21501},{"participantID":"qvky3vrndv46a4j4spswt0bohm1k36aj","judgmentIndices":[0,2,3,1],"questionScores":[22,2409,2397,30,2405,null,null,null,17,2413,null,20],"questionIndices":[41,1,7,5,35,47,42,10,14,33,39,16],"responseType":"finish","internal_node_id":"0.0-3.0","time_elapsed":202610,"trial_index":8,"trial_type":"survey-likert","responses":"{\"Q0\":\"1\",\"Q1\":\"3\",\"Q2\":\"0\",\"Q3\":\"5\",\"Q4\":\"6\"}","rt":22568},{"participantID":"qvky3vrndv46a4j4spswt0bohm1k36aj","judgmentIndices":[0,2,3,1],"questionScores":[22,2409,2397,30,2405,null,null,null,17,2413,null,20],"questionIndices":[41,1,7,5,35,47,42,10,14,33,39,16],"responseType":"finish","internal_node_id":"0.0-4.0-0.0","time_elapsed":221031,"trial_index":9,"trial_type":"survey-likert","responses":"{\"Q0\":\"2\",\"Q1\":\"1\",\"Q2\":\"1\",\"Q3\":\"5\"}","rt":17407},{"participantID":"qvky3vrndv46a4j4spswt0bohm1k36aj","judgmentIndices":[0,2,3,1],"questionScores":[22,2409,2397,30,2405,null,null,null,17,2413,null,20],"questionIndices":[41,1,7,5,35,47,42,10,14,33,39,16],"responseType":"finish","internal_node_id":"0.0-4.0-1.0","time_elapsed":241223,"trial_index":10,"trial_type":"survey-likert","responses":"{\"Q0\":\"2\",\"Q1\":\"4\",\"Q2\":\"3\",\"Q3\":\"4\"}","rt":19181},{"participantID":"qvky3vrndv46a4j4spswt0bohm1k36aj","judgmentIndices":[0,2,3,1],"questionScores":[22,2409,2397,30,2405,null,null,null,17,2413,null,20],"questionIndices":[41,1,7,5,35,47,42,10,14,33,39,16],"responseType":"finish","internal_node_id":"0.0-4.0-2.0","time_elapsed":270306,"trial_index":11,"trial_type":"survey-likert","responses":"{\"Q0\":\"3\",\"Q1\":\"1\",\"Q2\":\"4\",\"Q3\":\"0\"}","rt":28072},{"participantID":"qvky3vrndv46a4j4spswt0bohm1k36aj","judgmentIndices":[0,2,3,1],"questionScores":[22,2409,2397,30,2405,null,null,null,17,2413,null,20],"questionIndices":[41,1,7,5,35,47,42,10,14,33,39,16],"responseType":"finish","internal_node_id":"0.0-4.0-3.0","time_elapsed":293419,"trial_index":12,"trial_type":"survey-likert","responses":"{\"Q0\":\"1\",\"Q1\":\"0\",\"Q2\":\"3\",\"Q3\":\"5\"}","rt":22100},{"participantID":"qvky3vrndv46a4j4spswt0bohm1k36aj","judgmentIndices":[0,2,3,1],"questionScores":[22,2409,2397,30,2405,null,null,null,17,2413,null,20],"questionIndices":[41,1,7,5,35,47,42,10,14,33,39,16],"responseType":"finish","internal_node_id":"0.0-4.0-4.0","time_elapsed":310600,"trial_index":13,"trial_type":"survey-likert","responses":"{\"Q0\":\"0\",\"Q1\":\"3\",\"Q2\":\"0\",\"Q3\":\"0\"}","rt":16161}],"__v":0}
{"_id":{"$oid":"5ca009bd12c860000484016f"},"data":[{"participantID":"jk38lu8v4yok9sg43fwvfwk9akwozhj8","judgmentIndices":[2,0,1,3],"questionScores":[null,2422,15,32,26,null,null,26,2408,null,2415,2406],"questionIndices":[5,46,40,34,33,47,8,7,41,6,44,25],"responseType":"finish","internal_node_id":"0.0-0.0","time_elapsed":14595,"trial_index":0,"trial_type":"survey-multi-choice","responses":"{\"Q0\":\"I consent to participate\"}","rt":14582},{"participantID":"jk38lu8v4yok9sg43fwvfwk9akwozhj8","judgmentIndices":[2,0,1,3],"questionScores":[null,2422,15,32,26,null,null,26,2408,null,2415,2406],"questionIndices":[5,46,40,34,33,47,8,7,41,6,44,25],"responseType":"finish","internal_node_id":"0.0-1.0","time_elapsed":33239,"trial_index":1,"trial_type":"instructions","rt":17641,"view_history":"[{\"page_index\":0,\"viewing_time\":17641}]"},{"participantID":"jk38lu8v4yok9sg43fwvfwk9akwozhj8","judgmentIndices":[2,0,1,3],"questionScores":[null,2422,15,32,26,null,null,26,2408,null,2415,2406],"questionIndices":[5,46,40,34,33,47,8,7,41,6,44,25],"responseType":"finish","internal_node_id":"0.0-2.0-0.0","time_elapsed":59000,"trial_index":2,"trial_type":"survey-likert","responses":"{\"Q0\":\"2\",\"Q1\":\"4\",\"Q2\":\"0\",\"Q3\":\"1\"}","rt":24755},{"participantID":"jk38lu8v4yok9sg43fwvfwk9akwozhj8","judgmentIndices":[2,0,1,3],"questionScores":[null,2422,15,32,26,null,null,26,2408,null,2415,2406],"questionIndices":[5,46,40,34,33,47,8,7,41,6,44,25],"responseType":"finish","internal_node_id":"0.0-2.0-1.0","time_elapsed":80187,"trial_index":3,"trial_type":"survey-likert","responses":"{\"Q0\":\"3\",\"Q1\":\"3\",\"Q2\":\"2\",\"Q3\":\"1\"}","rt":20182},{"participantID":"jk38lu8v4yok9sg43fwvfwk9akwozhj8","judgmentIndices":[2,0,1,3],"questionScores":[null,2422,15,32,26,null,null,26,2408,null,2415,2406],"questionIndices":[5,46,40,34,33,47,8,7,41,6,44,25],"responseType":"finish","internal_node_id":"0.0-2.0-2.0","time_elapsed":108658,"trial_index":4,"trial_type":"survey-likert","responses":"{\"Q0\":\"4\",\"Q1\":\"4\",\"Q2\":\"1\",\"Q3\":\"4\"}","rt":27466},{"participantID":"jk38lu8v4yok9sg43fwvfwk9akwozhj8","judgmentIndices":[2,0,1,3],"questionScores":[null,2422,15,32,26,null,null,26,2408,null,2415,2406],"questionIndices":[5,46,40,34,33,47,8,7,41,6,44,25],"responseType":"finish","internal_node_id":"0.0-2.0-3.0","time_elapsed":130546,"trial_index":5,"trial_type":"survey-likert","responses":"{\"Q0\":\"2\",\"Q1\":\"2\",\"Q2\":\"4\",\"Q3\":\"3\"}","rt":20881},{"participantID":"jk38lu8v4yok9sg43fwvfwk9akwozhj8","judgmentIndices":[2,0,1,3],"questionScores":[null,2422,15,32,26,null,null,26,2408,null,2415,2406],"questionIndices":[5,46,40,34,33,47,8,7,41,6,44,25],"responseType":"finish","internal_node_id":"0.0-2.0-4.0","time_elapsed":167891,"trial_index":6,"trial_type":"survey-likert","responses":"{\"Q0\":\"1\",\"Q1\":\"5\",\"Q2\":\"0\",\"Q3\":\"4\"}","rt":36341},{"participantID":"jk38lu8v4yok9sg43fwvfwk9akwozhj8","judgmentIndices":[2,0,1,3],"questionScores":[null,2422,15,32,26,null,null,26,2408,null,2415,2406],"questionIndices":[5,46,40,34,33,47,8,7,41,6,44,25],"responseType":"finish","internal_node_id":"0.0-2.0-5.0","time_elapsed":185166,"trial_index":7,"trial_type":"survey-likert","responses":"{\"Q0\":\"3\",\"Q1\":\"2\",\"Q2\":\"1\",\"Q3\":\"2\"}","rt":16269},{"participantID":"jk38lu8v4yok9sg43fwvfwk9akwozhj8","judgmentIndices":[2,0,1,3],"questionScores":[null,2422,15,32,26,null,null,26,2408,null,2415,2406],"questionIndices":[5,46,40,34,33,47,8,7,41,6,44,25],"responseType":"finish","internal_node_id":"0.0-3.0","time_elapsed":212526,"trial_index":8,"trial_type":"survey-likert","responses":"{\"Q0\":\"2\",\"Q1\":\"2\",\"Q2\":\"4\",\"Q3\":\"2\",\"Q4\":\"6\"}","rt":26355},{"participantID":"jk38lu8v4yok9sg43fwvfwk9akwozhj8","judgmentIndices":[2,0,1,3],"questionScores":[null,2422,15,32,26,null,null,26,2408,null,2415,2406],"questionIndices":[5,46,40,34,33,47,8,7,41,6,44,25],"responseType":"finish","internal_node_id":"0.0-4.0-0.0","time_elapsed":230750,"trial_index":9,"trial_type":"survey-likert","responses":"{\"Q0\":\"2\",\"Q1\":\"2\",\"Q2\":\"4\",\"Q3\":\"2\"}","rt":17219},{"participantID":"jk38lu8v4yok9sg43fwvfwk9akwozhj8","judgmentIndices":[2,0,1,3],"questionScores":[null,2422,15,32,26,null,null,26,2408,null,2415,2406],"questionIndices":[5,46,40,34,33,47,8,7,41,6,44,25],"responseType":"finish","internal_node_id":"0.0-4.0-1.0","time_elapsed":251179,"trial_index":10,"trial_type":"survey-likert","responses":"{\"Q0\":\"3\",\"Q1\":\"3\",\"Q2\":\"2\",\"Q3\":\"4\"}","rt":19425},{"participantID":"jk38lu8v4yok9sg43fwvfwk9akwozhj8","judgmentIndices":[2,0,1,3],"questionScores":[null,2422,15,32,26,null,null,26,2408,null,2415,2406],"questionIndices":[5,46,40,34,33,47,8,7,41,6,44,25],"responseType":"finish","internal_node_id":"0.0-4.0-2.0","time_elapsed":271492,"trial_index":11,"trial_type":"survey-likert","responses":"{\"Q0\":\"2\",\"Q1\":\"2\",\"Q2\":\"4\",\"Q3\":\"2\"}","rt":19307},{"participantID":"jk38lu8v4yok9sg43fwvfwk9akwozhj8","judgmentIndices":[2,0,1,3],"questionScores":[null,2422,15,32,26,null,null,26,2408,null,2415,2406],"questionIndices":[5,46,40,34,33,47,8,7,41,6,44,25],"responseType":"finish","internal_node_id":"0.0-4.0-3.0","time_elapsed":287956,"trial_index":12,"trial_type":"survey-likert","responses":"{\"Q0\":\"2\",\"Q1\":\"2\",\"Q2\":\"4\",\"Q3\":\"2\"}","rt":15460},{"participantID":"jk38lu8v4yok9sg43fwvfwk9akwozhj8","judgmentIndices":[2,0,1,3],"questionScores":[null,2422,15,32,26,null,null,26,2408,null,2415,2406],"questionIndices":[5,46,40,34,33,47,8,7,41,6,44,25],"responseType":"finish","internal_node_id":"0.0-4.0-4.0","time_elapsed":306694,"trial_index":13,"trial_type":"survey-likert","responses":"{\"Q0\":\"1\",\"Q1\":\"4\",\"Q2\":\"1\",\"Q3\":\"3\"}","rt":17731}],"__v":0}
{"_id":{"$oid":"5ca009c812c8600004840170"},"data":[{"participantID":"fymyx1zfxpe8xzdhnorfczuafrdz5p0a","judgmentIndices":[3,2,0,1],"questionScores":[24,2413,2383,17,17,null,null,null,null,2422,31,2398],"questionIndices":[20,42,40,12,44,9,34,5,22,39,31,16],"responseType":"finish","internal_node_id":"0.0-0.0","time_elapsed":8881,"trial_index":0,"trial_type":"survey-multi-choice","responses":"{\"Q0\":\"I consent to participate\"}","rt":8866},{"participantID":"fymyx1zfxpe8xzdhnorfczuafrdz5p0a","judgmentIndices":[3,2,0,1],"questionScores":[24,2413,2383,17,17,null,null,null,null,2422,31,2398],"questionIndices":[20,42,40,12,44,9,34,5,22,39,31,16],"responseType":"finish","internal_node_id":"0.0-1.0","time_elapsed":22927,"trial_index":1,"trial_type":"instructions","rt":13045,"view_history":"[{\"page_index\":0,\"viewing_time\":13045}]"},{"participantID":"fymyx1zfxpe8xzdhnorfczuafrdz5p0a","judgmentIndices":[3,2,0,1],"questionScores":[24,2413,2383,17,17,null,null,null,null,2422,31,2398],"questionIndices":[20,42,40,12,44,9,34,5,22,39,31,16],"responseType":"finish","internal_node_id":"0.0-2.0-0.0","time_elapsed":50705,"trial_index":2,"trial_type":"survey-likert","responses":"{\"Q0\":\"1\",\"Q1\":\"1\",\"Q2\":\"5\",\"Q3\":\"0\"}","rt":26756},{"participantID":"fymyx1zfxpe8xzdhnorfczuafrdz5p0a","judgmentIndices":[3,2,0,1],"questionScores":[24,2413,2383,17,17,null,null,null,null,2422,31,2398],"questionIndices":[20,42,40,12,44,9,34,5,22,39,31,16],"responseType":"finish","internal_node_id":"0.0-2.0-1.0","time_elapsed":67932,"trial_index":3,"trial_type":"survey-likert","responses":"{\"Q0\":\"1\",\"Q1\":\"2\",\"Q2\":\"6\",\"Q3\":\"0\"}","rt":16218},{"participantID":"fymyx1zfxpe8xzdhnorfczuafrdz5p0a","judgmentIndices":[3,2,0,1],"questionScores":[24,2413,2383,17,17,null,null,null,null,2422,31,2398],"questionIndices":[20,42,40,12,44,9,34,5,22,39,31,16],"responseType":"finish","internal_node_id":"0.0-2.0-2.0","time_elapsed":84879,"trial_index":4,"trial_type":"survey-likert","responses":"{\"Q0\":\"0\",\"Q1\":\"0\",\"Q2\":\"3\",\"Q3\":\"0\"}","rt":15938},{"participantID":"fymyx1zfxpe8xzdhnorfczuafrdz5p0a","judgmentIndices":[3,2,0,1],"questionScores":[24,2413,2383,17,17,null,null,null,null,2422,31,2398],"questionIndices":[20,42,40,12,44,9,34,5,22,39,31,16],"responseType":"finish","internal_node_id":"0.0-2.0-3.0","time_elapsed":97615,"trial_index":5,"trial_type":"survey-likert","responses":"{\"Q0\":\"2\",\"Q1\":\"4\",\"Q2\":\"5\",\"Q3\":\"0\"}","rt":11713},{"participantID":"fymyx1zfxpe8xzdhnorfczuafrdz5p0a","judgmentIndices":[3,2,0,1],"questionScores":[24,2413,2383,17,17,null,null,null,null,2422,31,2398],"questionIndices":[20,42,40,12,44,9,34,5,22,39,31,16],"responseType":"finish","internal_node_id":"0.0-2.0-4.0","time_elapsed":110991,"trial_index":6,"trial_type":"survey-likert","responses":"{\"Q0\":\"1\",\"Q1\":\"3\",\"Q2\":\"6\",\"Q3\":\"1\"}","rt":12366},{"participantID":"fymyx1zfxpe8xzdhnorfczuafrdz5p0a","judgmentIndices":[3,2,0,1],"questionScores":[24,2413,2383,17,17,null,null,null,null,2422,31,2398],"questionIndices":[20,42,40,12,44,9,34,5,22,39,31,16],"responseType":"finish","internal_node_id":"0.0-2.0-5.0","time_elapsed":132527,"trial_index":7,"trial_type":"survey-likert","responses":"{\"Q0\":\"0\",\"Q1\":\"0\",\"Q2\":\"4\",\"Q3\":\"0\"}","rt":20524},{"participantID":"fymyx1zfxpe8xzdhnorfczuafrdz5p0a","judgmentIndices":[3,2,0,1],"questionScores":[24,2413,2383,17,17,null,null,null,null,2422,31,2398],"questionIndices":[20,42,40,12,44,9,34,5,22,39,31,16],"responseType":"finish","internal_node_id":"0.0-3.0","time_elapsed":152264,"trial_index":8,"trial_type":"survey-likert","responses":"{\"Q0\":\"1\",\"Q1\":\"5\",\"Q2\":\"6\",\"Q3\":\"0\",\"Q4\":\"6\"}","rt":18731},{"participantID":"fymyx1zfxpe8xzdhnorfczuafrdz5p0a","judgmentIndices":[3,2,0,1],"questionScores":[24,2413,2383,17,17,null,null,null,null,2422,31,2398],"questionIndices":[20,42,40,12,44,9,34,5,22,39,31,16],"responseType":"finish","internal_node_id":"0.0-4.0-0.0","time_elapsed":167775,"trial_index":9,"trial_type":"survey-likert","responses":"{\"Q0\":\"0\",\"Q1\":\"2\",\"Q2\":\"5\",\"Q3\":\"0\"}","rt":14498},{"participantID":"fymyx1zfxpe8xzdhnorfczuafrdz5p0a","judgmentIndices":[3,2,0,1],"questionScores":[24,2413,2383,17,17,null,null,null,null,2422,31,2398],"questionIndices":[20,42,40,12,44,9,34,5,22,39,31,16],"responseType":"finish","internal_node_id":"0.0-4.0-1.0","time_elapsed":183417,"trial_index":10,"trial_type":"survey-likert","responses":"{\"Q0\":\"0\",\"Q1\":\"0\",\"Q2\":\"3\",\"Q3\":\"0\"}","rt":14637},{"participantID":"fymyx1zfxpe8xzdhnorfczuafrdz5p0a","judgmentIndices":[3,2,0,1],"questionScores":[24,2413,2383,17,17,null,null,null,null,2422,31,2398],"questionIndices":[20,42,40,12,44,9,34,5,22,39,31,16],"responseType":"finish","internal_node_id":"0.0-4.0-2.0","time_elapsed":196799,"trial_index":11,"trial_type":"survey-likert","responses":"{\"Q0\":\"0\",\"Q1\":\"0\",\"Q2\":\"4\",\"Q3\":\"0\"}","rt":12368},{"participantID":"fymyx1zfxpe8xzdhnorfczuafrdz5p0a","judgmentIndices":[3,2,0,1],"questionScores":[24,2413,2383,17,17,null,null,null,null,2422,31,2398],"questionIndices":[20,42,40,12,44,9,34,5,22,39,31,16],"responseType":"finish","internal_node_id":"0.0-4.0-3.0","time_elapsed":208271,"trial_index":12,"trial_type":"survey-likert","responses":"{\"Q0\":\"0\",\"Q1\":\"0\",\"Q2\":\"3\",\"Q3\":\"0\"}","rt":10460},{"participantID":"fymyx1zfxpe8xzdhnorfczuafrdz5p0a","judgmentIndices":[3,2,0,1],"questionScores":[24,2413,2383,17,17,null,null,null,null,2422,31,2398],"questionIndices":[20,42,40,12,44,9,34,5,22,39,31,16],"responseType":"finish","internal_node_id":"0.0-4.0-4.0","time_elapsed":220687,"trial_index":13,"trial_type":"survey-likert","responses":"{\"Q0\":\"0\",\"Q1\":\"0\",\"Q2\":\"0\",\"Q3\":\"0\"}","rt":11409}],"__v":0}
