{"_id":{"$oid":"5ac700ba54689e00044749eb"},"data":{"participantID":"lnzuk6sf7vwotoymfk7jp4s01hohbmpb"},"__v":0}
{"_id":{"$oid":"5ac7016154689e00044749ec"},"data":{"participantID":"zug6q7afocgohevbv39t7tessh3w4c98"},"__v":0}
{"_id":{"$oid":"5ac7018354689e00044749ed"},"data":{"participantID":"f03jjfpfcldn9o379ryowbfa4gx6x4uw"},"__v":0}
{"_id":{"$oid":"5acba33e52c18d00041ed62f"},"data":{"responseType":1,"participantID":"99rekf2t4xdtu5odhzavjdvp9xuonxrj","groupNumber":1},"__v":0}
{"_id":{"$oid":"5acba79ea809880004699dcf"},"data":{"responseType":1,"participantID":"452qucx2hfd37w8xa6lqqaot87zse4os","groupNumber":2},"__v":0}
{"_id":{"$oid":"5acba9ba5cfdcb000402bf28"},"data":{"responseType":1,"participantID":"bnl1pze39sr3r5tbqymy43wet88xcjcz","groupNumber":2},"__v":0}
{"_id":{"$oid":"5acba9d85cfdcb000402bf29"},"data":{"responseType":1,"participantID":"ot522v0x3kbbo1fdkksm99rsc21gvv9g","groupNumber":2},"__v":0}
{"_id":{"$oid":"5acba9e75cfdcb000402bf2a"},"data":{"responseType":1,"participantID":"y28quqev3xut7s1s765onuyy775mq59v","groupNumber":2},"__v":0}
{"_id":{"$oid":"5acba9f95cfdcb000402bf2b"},"data":{"responseType":1,"participantID":"zac1yfvfpqv2zub1smmu603ub35ppv2m","groupNumber":1},"__v":0}
{"_id":{"$oid":"5acbab848a36640004b137f4"},"data":{"responseType":1,"participantID":"v37leca5bu4f88ldpd1qt1dmlff2xyxl","groupNumber":2},"__v":0}
{"_id":{"$oid":"5acbab948a36640004b137f5"},"data":{"responseType":1,"participantID":"7gyw69cphte94koxgq8fqe72wal453t2","groupNumber":2},"__v":0}
{"_id":{"$oid":"5acbaba18a36640004b137f6"},"data":{"responseType":1,"participantID":"6rdp183ar5kr3jagqdoxb7nh9d7kyd0u","groupNumber":0},"__v":0}
{"_id":{"$oid":"5acbac4d8a36640004b137f7"},"data":[{"questionScores":[35,2416,2399,42,29,15,2398,2406,17,2413],"questionIndices":[9,34,29,31,37,7,13,36,40,45],"judgmentIndices":[1,2,6,0,3,4],"groupNumber":0,"participantID":"6rdp183ar5kr3jagqdoxb7nh9d7kyd0u","responseType":0,"internal_node_id":"0.0-0.0","time_elapsed":2373,"trial_index":0,"trial_type":"survey-multi-choice","responses":"{\"Q0\":\"I consent to participate\"}","rt":2368},{"questionScores":[35,2416,2399,42,29,15,2398,2406,17,2413],"questionIndices":[9,34,29,31,37,7,13,36,40,45],"judgmentIndices":[1,2,6,0,3,4],"groupNumber":0,"participantID":"6rdp183ar5kr3jagqdoxb7nh9d7kyd0u","responseType":0,"internal_node_id":"0.0-1.0","time_elapsed":3376,"trial_index":1,"trial_type":"call-function"},{"questionScores":[35,2416,2399,42,29,15,2398,2406,17,2413],"questionIndices":[9,34,29,31,37,7,13,36,40,45],"judgmentIndices":[1,2,6,0,3,4],"groupNumber":0,"participantID":"6rdp183ar5kr3jagqdoxb7nh9d7kyd0u","responseType":0,"internal_node_id":"0.0-2.0","time_elapsed":4465,"trial_index":2,"trial_type":"instructions","rt":1089,"view_history":"[{\"page_index\":0,\"viewing_time\":1089}]"},{"questionScores":[35,2416,2399,42,29,15,2398,2406,17,2413],"questionIndices":[9,34,29,31,37,7,13,36,40,45],"judgmentIndices":[1,2,6,0,3,4],"groupNumber":0,"participantID":"6rdp183ar5kr3jagqdoxb7nh9d7kyd0u","responseType":0,"internal_node_id":"0.0-3.0","time_elapsed":6532,"trial_index":3,"trial_type":"instructions","rt":1065,"view_history":"[{\"page_index\":0,\"viewing_time\":1064}]"},{"questionScores":[35,2416,2399,42,29,15,2398,2406,17,2413],"questionIndices":[9,34,29,31,37,7,13,36,40,45],"judgmentIndices":[1,2,6,0,3,4],"groupNumber":0,"participantID":"6rdp183ar5kr3jagqdoxb7nh9d7kyd0u","responseType":0,"internal_node_id":"0.0-4.0","time_elapsed":9528,"trial_index":4,"trial_type":"survey-multi-choice","responses":"{\"Q0\":\"15 questions\"}","rt":1988},{"questionScores":[35,2416,2399,42,29,15,2398,2406,17,2413],"questionIndices":[9,34,29,31,37,7,13,36,40,45],"judgmentIndices":[1,2,6,0,3,4],"groupNumber":0,"participantID":"6rdp183ar5kr3jagqdoxb7nh9d7kyd0u","responseType":0,"internal_node_id":"0.0-5.0-0.0","time_elapsed":23327,"trial_index":5,"trial_type":"survey-likert","responses":"{\"Q0\":\"0\",\"Q1\":\"0\",\"Q2\":\"0\",\"Q3\":\"0\",\"Q4\":\"0\",\"Q5\":\"0\"}","rt":12792},{"questionScores":[35,2416,2399,42,29,15,2398,2406,17,2413],"questionIndices":[9,34,29,31,37,7,13,36,40,45],"judgmentIndices":[1,2,6,0,3,4],"groupNumber":0,"participantID":"6rdp183ar5kr3jagqdoxb7nh9d7kyd0u","responseType":0,"internal_node_id":"0.0-5.0-1.0","time_elapsed":35006,"trial_index":6,"trial_type":"survey-likert","responses":"{\"Q0\":\"0\",\"Q1\":\"0\",\"Q2\":\"0\",\"Q3\":\"0\",\"Q4\":\"0\",\"Q5\":\"0\"}","rt":10671},{"questionScores":[35,2416,2399,42,29,15,2398,2406,17,2413],"questionIndices":[9,34,29,31,37,7,13,36,40,45],"judgmentIndices":[1,2,6,0,3,4],"groupNumber":0,"participantID":"6rdp183ar5kr3jagqdoxb7nh9d7kyd0u","responseType":0,"internal_node_id":"0.0-5.0-2.0","time_elapsed":44820,"trial_index":7,"trial_type":"survey-likert","responses":"{\"Q0\":\"0\",\"Q1\":\"0\",\"Q2\":\"0\",\"Q3\":\"0\",\"Q4\":\"0\",\"Q5\":\"0\"}","rt":8807},{"questionScores":[35,2416,2399,42,29,15,2398,2406,17,2413],"questionIndices":[9,34,29,31,37,7,13,36,40,45],"judgmentIndices":[1,2,6,0,3,4],"groupNumber":0,"participantID":"6rdp183ar5kr3jagqdoxb7nh9d7kyd0u","responseType":0,"internal_node_id":"0.0-5.0-3.0","time_elapsed":54328,"trial_index":8,"trial_type":"survey-likert","responses":"{\"Q0\":\"0\",\"Q1\":\"0\",\"Q2\":\"0\",\"Q3\":\"0\",\"Q4\":\"0\",\"Q5\":\"0\"}","rt":8501},{"questionScores":[35,2416,2399,42,29,15,2398,2406,17,2413],"questionIndices":[9,34,29,31,37,7,13,36,40,45],"judgmentIndices":[1,2,6,0,3,4],"groupNumber":0,"participantID":"6rdp183ar5kr3jagqdoxb7nh9d7kyd0u","responseType":0,"internal_node_id":"0.0-5.0-4.0","time_elapsed":63016,"trial_index":9,"trial_type":"survey-likert","responses":"{\"Q0\":\"0\",\"Q1\":\"0\",\"Q2\":\"0\",\"Q3\":\"0\",\"Q4\":\"0\",\"Q5\":\"0\"}","rt":7680},{"questionScores":[35,2416,2399,42,29,15,2398,2406,17,2413],"questionIndices":[9,34,29,31,37,7,13,36,40,45],"judgmentIndices":[1,2,6,0,3,4],"groupNumber":0,"participantID":"6rdp183ar5kr3jagqdoxb7nh9d7kyd0u","responseType":0,"internal_node_id":"0.0-5.0-5.0","time_elapsed":84048,"trial_index":10,"trial_type":"survey-likert","responses":"{\"Q0\":\"0\",\"Q1\":\"0\",\"Q2\":\"0\",\"Q3\":\"0\",\"Q4\":\"0\",\"Q5\":\"0\"}","rt":20025},{"questionScores":[35,2416,2399,42,29,15,2398,2406,17,2413],"questionIndices":[9,34,29,31,37,7,13,36,40,45],"judgmentIndices":[1,2,6,0,3,4],"groupNumber":0,"participantID":"6rdp183ar5kr3jagqdoxb7nh9d7kyd0u","responseType":0,"internal_node_id":"0.0-5.0-6.0","time_elapsed":92454,"trial_index":11,"trial_type":"survey-likert","responses":"{\"Q0\":\"0\",\"Q1\":\"0\",\"Q2\":\"0\",\"Q3\":\"0\",\"Q4\":\"0\",\"Q5\":\"0\"}","rt":7402},{"questionScores":[35,2416,2399,42,29,15,2398,2406,17,2413],"questionIndices":[9,34,29,31,37,7,13,36,40,45],"judgmentIndices":[1,2,6,0,3,4],"groupNumber":0,"participantID":"6rdp183ar5kr3jagqdoxb7nh9d7kyd0u","responseType":0,"internal_node_id":"0.0-5.0-7.0","time_elapsed":100745,"trial_index":12,"trial_type":"survey-likert","responses":"{\"Q0\":\"0\",\"Q1\":\"0\",\"Q2\":\"0\",\"Q3\":\"0\",\"Q4\":\"0\",\"Q5\":\"0\"}","rt":7283},{"questionScores":[35,2416,2399,42,29,15,2398,2406,17,2413],"questionIndices":[9,34,29,31,37,7,13,36,40,45],"judgmentIndices":[1,2,6,0,3,4],"groupNumber":0,"participantID":"6rdp183ar5kr3jagqdoxb7nh9d7kyd0u","responseType":0,"internal_node_id":"0.0-5.0-8.0","time_elapsed":109702,"trial_index":13,"trial_type":"survey-likert","responses":"{\"Q0\":\"0\",\"Q1\":\"0\",\"Q2\":\"0\",\"Q3\":\"0\",\"Q4\":\"0\",\"Q5\":\"0\"}","rt":7951},{"questionScores":[35,2416,2399,42,29,15,2398,2406,17,2413],"questionIndices":[9,34,29,31,37,7,13,36,40,45],"judgmentIndices":[1,2,6,0,3,4],"groupNumber":0,"participantID":"6rdp183ar5kr3jagqdoxb7nh9d7kyd0u","responseType":0,"internal_node_id":"0.0-5.0-9.0","time_elapsed":118419,"trial_index":14,"trial_type":"survey-likert","responses":"{\"Q0\":\"0\",\"Q1\":\"0\",\"Q2\":\"0\",\"Q3\":\"0\",\"Q4\":\"0\",\"Q5\":\"0\"}","rt":7710},{"questionScores":[35,2416,2399,42,29,15,2398,2406,17,2413],"questionIndices":[9,34,29,31,37,7,13,36,40,45],"judgmentIndices":[1,2,6,0,3,4],"groupNumber":0,"participantID":"6rdp183ar5kr3jagqdoxb7nh9d7kyd0u","responseType":0,"internal_node_id":"0.0-6.0","time_elapsed":123716,"trial_index":15,"trial_type":"instructions","rt":4295,"view_history":"[{\"page_index\":0,\"viewing_time\":4294}]"},{"questionScores":[35,2416,2399,42,29,15,2398,2406,17,2413],"questionIndices":[9,34,29,31,37,7,13,36,40,45],"judgmentIndices":[1,2,6,0,3,4],"groupNumber":0,"participantID":"6rdp183ar5kr3jagqdoxb7nh9d7kyd0u","responseType":0,"internal_node_id":"0.0-7.0","time_elapsed":126502,"trial_index":16,"trial_type":"survey-multi-choice","responses":"{\"Q0\":\"5 questions\"}","rt":1780},{"questionScores":[35,2416,2399,42,29,15,2398,2406,17,2413],"questionIndices":[9,34,29,31,37,7,13,36,40,45],"judgmentIndices":[1,2,6,0,3,4],"groupNumber":0,"participantID":"6rdp183ar5kr3jagqdoxb7nh9d7kyd0u","responseType":0,"internal_node_id":"0.0-8.0","time_elapsed":145047,"trial_index":17,"trial_type":"survey-multi-choose","responses":"{\"Q0\":\"Keep Hidden\",\"Q1\":\"Keep Hidden\",\"Q2\":\"Reveal Answer\",\"Q3\":\"Reveal Answer\",\"Q4\":\"Keep Hidden\",\"Q5\":\"Keep Hidden\",\"Q6\":\"Keep Hidden\",\"Q7\":\"Reveal Answer\",\"Q8\":\"Reveal Answer\",\"Q9\":\"Reveal Answer\"}","rt":17534},{"questionScores":[35,2416,2399,42,29,15,2398,2406,17,2413],"questionIndices":[9,34,29,31,37,7,13,36,40,45],"judgmentIndices":[1,2,6,0,3,4],"groupNumber":0,"participantID":"6rdp183ar5kr3jagqdoxb7nh9d7kyd0u","responseType":0,"internal_node_id":"0.0-9.0","time_elapsed":166706,"trial_index":18,"trial_type":"instructions","rt":20651,"view_history":"[{\"page_index\":0,\"viewing_time\":20650}]"}],"__v":0}
{"_id":{"$oid":"5acbe2b6cca1d70004febf70"},"data":{"responseType":1,"participantID":"js3rsnvl8cdwejsa8tpo72x0wl9bj9bs","groupNumber":1},"__v":0}
{"_id":{"$oid":"5ace8e911d5304000404a4ff"},"data":{"responseType":1,"participantID":"r7gvngs3mjdqo4lb3nd6hm3b3uobqsrb","groupNumber":2},"__v":0}
{"_id":{"$oid":"5ace8fe11d5304000404a500"},"data":[{"questionScores":[2403,2400,28,21,25,18,2399,50,2411,2411],"questionIndices":[14,35,26,20,7,3,49,2,28,42],"judgmentIndices":[5,3,2,6,0,4,1],"groupNumber":2,"participantID":"r7gvngs3mjdqo4lb3nd6hm3b3uobqsrb","responseType":0,"internal_node_id":"0.0-0.0","time_elapsed":8986,"trial_index":0,"trial_type":"survey-multi-choice","responses":"{\"Q0\":\"I consent to participate\"}","rt":8979},{"questionScores":[2403,2400,28,21,25,18,2399,50,2411,2411],"questionIndices":[14,35,26,20,7,3,49,2,28,42],"judgmentIndices":[5,3,2,6,0,4,1],"groupNumber":2,"participantID":"r7gvngs3mjdqo4lb3nd6hm3b3uobqsrb","responseType":0,"internal_node_id":"0.0-1.0","time_elapsed":9992,"trial_index":1,"trial_type":"call-function"},{"questionScores":[2403,2400,28,21,25,18,2399,50,2411,2411],"questionIndices":[14,35,26,20,7,3,49,2,28,42],"judgmentIndices":[5,3,2,6,0,4,1],"groupNumber":2,"participantID":"r7gvngs3mjdqo4lb3nd6hm3b3uobqsrb","responseType":0,"internal_node_id":"0.0-2.0","time_elapsed":15673,"trial_index":2,"trial_type":"instructions","rt":5680,"view_history":"[{\"page_index\":0,\"viewing_time\":5679}]"},{"questionScores":[2403,2400,28,21,25,18,2399,50,2411,2411],"questionIndices":[14,35,26,20,7,3,49,2,28,42],"judgmentIndices":[5,3,2,6,0,4,1],"groupNumber":2,"participantID":"r7gvngs3mjdqo4lb3nd6hm3b3uobqsrb","responseType":0,"internal_node_id":"0.0-3.0","time_elapsed":53505,"trial_index":3,"trial_type":"instructions","rt":36831,"view_history":"[{\"page_index\":0,\"viewing_time\":36830}]"},{"questionScores":[2403,2400,28,21,25,18,2399,50,2411,2411],"questionIndices":[14,35,26,20,7,3,49,2,28,42],"judgmentIndices":[5,3,2,6,0,4,1],"groupNumber":2,"participantID":"r7gvngs3mjdqo4lb3nd6hm3b3uobqsrb","responseType":0,"internal_node_id":"0.0-4.0","time_elapsed":60377,"trial_index":4,"trial_type":"survey-multi-choice","responses":"{\"Q0\":\"10 questions\"}","rt":5867},{"questionScores":[2403,2400,28,21,25,18,2399,50,2411,2411],"questionIndices":[14,35,26,20,7,3,49,2,28,42],"judgmentIndices":[5,3,2,6,0,4,1],"groupNumber":2,"participantID":"r7gvngs3mjdqo4lb3nd6hm3b3uobqsrb","responseType":0,"internal_node_id":"0.0-5.0-0.0","time_elapsed":131087,"trial_index":5,"trial_type":"survey-likert","responses":"{\"Q0\":\"4\",\"Q1\":\"3\",\"Q2\":\"3\",\"Q3\":\"3\",\"Q4\":\"3\",\"Q5\":\"3\",\"Q6\":\"3\"}","rt":69703},{"questionScores":[2403,2400,28,21,25,18,2399,50,2411,2411],"questionIndices":[14,35,26,20,7,3,49,2,28,42],"judgmentIndices":[5,3,2,6,0,4,1],"groupNumber":2,"participantID":"r7gvngs3mjdqo4lb3nd6hm3b3uobqsrb","responseType":0,"internal_node_id":"0.0-5.0-1.0","time_elapsed":153186,"trial_index":6,"trial_type":"survey-likert","responses":"{\"Q0\":\"3\",\"Q1\":\"3\",\"Q2\":\"3\",\"Q3\":\"3\",\"Q4\":\"3\",\"Q5\":\"3\",\"Q6\":\"3\"}","rt":21093},{"questionScores":[2403,2400,28,21,25,18,2399,50,2411,2411],"questionIndices":[14,35,26,20,7,3,49,2,28,42],"judgmentIndices":[5,3,2,6,0,4,1],"groupNumber":2,"participantID":"r7gvngs3mjdqo4lb3nd6hm3b3uobqsrb","responseType":0,"internal_node_id":"0.0-5.0-2.0","time_elapsed":178076,"trial_index":7,"trial_type":"survey-likert","responses":"{\"Q0\":\"3\",\"Q1\":\"3\",\"Q2\":\"3\",\"Q3\":\"3\",\"Q4\":\"3\",\"Q5\":\"3\",\"Q6\":\"3\"}","rt":23884},{"questionScores":[2403,2400,28,21,25,18,2399,50,2411,2411],"questionIndices":[14,35,26,20,7,3,49,2,28,42],"judgmentIndices":[5,3,2,6,0,4,1],"groupNumber":2,"participantID":"r7gvngs3mjdqo4lb3nd6hm3b3uobqsrb","responseType":0,"internal_node_id":"0.0-5.0-3.0","time_elapsed":190102,"trial_index":8,"trial_type":"survey-likert","responses":"{\"Q0\":\"3\",\"Q1\":\"3\",\"Q2\":\"3\",\"Q3\":\"3\",\"Q4\":\"3\",\"Q5\":\"3\",\"Q6\":\"3\"}","rt":11020},{"questionScores":[2403,2400,28,21,25,18,2399,50,2411,2411],"questionIndices":[14,35,26,20,7,3,49,2,28,42],"judgmentIndices":[5,3,2,6,0,4,1],"groupNumber":2,"participantID":"r7gvngs3mjdqo4lb3nd6hm3b3uobqsrb","responseType":0,"internal_node_id":"0.0-5.0-4.0","time_elapsed":203999,"trial_index":9,"trial_type":"survey-likert","responses":"{\"Q0\":\"0\",\"Q1\":\"0\",\"Q2\":\"0\",\"Q3\":\"0\",\"Q4\":\"0\",\"Q5\":\"0\",\"Q6\":\"0\"}","rt":12892},{"questionScores":[2403,2400,28,21,25,18,2399,50,2411,2411],"questionIndices":[14,35,26,20,7,3,49,2,28,42],"judgmentIndices":[5,3,2,6,0,4,1],"groupNumber":2,"participantID":"r7gvngs3mjdqo4lb3nd6hm3b3uobqsrb","responseType":0,"internal_node_id":"0.0-5.0-5.0","time_elapsed":217051,"trial_index":10,"trial_type":"survey-likert","responses":"{\"Q0\":\"0\",\"Q1\":\"0\",\"Q2\":\"0\",\"Q3\":\"0\",\"Q4\":\"0\",\"Q5\":\"0\",\"Q6\":\"0\"}","rt":12045},{"questionScores":[2403,2400,28,21,25,18,2399,50,2411,2411],"questionIndices":[14,35,26,20,7,3,49,2,28,42],"judgmentIndices":[5,3,2,6,0,4,1],"groupNumber":2,"participantID":"r7gvngs3mjdqo4lb3nd6hm3b3uobqsrb","responseType":0,"internal_node_id":"0.0-5.0-6.0","time_elapsed":229760,"trial_index":11,"trial_type":"survey-likert","responses":"{\"Q0\":\"0\",\"Q1\":\"0\",\"Q2\":\"0\",\"Q3\":\"0\",\"Q4\":\"0\",\"Q5\":\"0\",\"Q6\":\"0\"}","rt":11703},{"questionScores":[2403,2400,28,21,25,18,2399,50,2411,2411],"questionIndices":[14,35,26,20,7,3,49,2,28,42],"judgmentIndices":[5,3,2,6,0,4,1],"groupNumber":2,"participantID":"r7gvngs3mjdqo4lb3nd6hm3b3uobqsrb","responseType":0,"internal_node_id":"0.0-5.0-7.0","time_elapsed":245927,"trial_index":12,"trial_type":"survey-likert","responses":"{\"Q0\":\"0\",\"Q1\":\"0\",\"Q2\":\"0\",\"Q3\":\"0\",\"Q4\":\"0\",\"Q5\":\"0\",\"Q6\":\"0\"}","rt":15162},{"questionScores":[2403,2400,28,21,25,18,2399,50,2411,2411],"questionIndices":[14,35,26,20,7,3,49,2,28,42],"judgmentIndices":[5,3,2,6,0,4,1],"groupNumber":2,"participantID":"r7gvngs3mjdqo4lb3nd6hm3b3uobqsrb","responseType":0,"internal_node_id":"0.0-5.0-8.0","time_elapsed":257588,"trial_index":13,"trial_type":"survey-likert","responses":"{\"Q0\":\"0\",\"Q1\":\"0\",\"Q2\":\"0\",\"Q3\":\"0\",\"Q4\":\"0\",\"Q5\":\"0\",\"Q6\":\"0\"}","rt":10655},{"questionScores":[2403,2400,28,21,25,18,2399,50,2411,2411],"questionIndices":[14,35,26,20,7,3,49,2,28,42],"judgmentIndices":[5,3,2,6,0,4,1],"groupNumber":2,"participantID":"r7gvngs3mjdqo4lb3nd6hm3b3uobqsrb","responseType":0,"internal_node_id":"0.0-5.0-9.0","time_elapsed":268136,"trial_index":14,"trial_type":"survey-likert","responses":"{\"Q0\":\"0\",\"Q1\":\"0\",\"Q2\":\"0\",\"Q3\":\"0\",\"Q4\":\"0\",\"Q5\":\"0\",\"Q6\":\"0\"}","rt":9543},{"questionScores":[2403,2400,28,21,25,18,2399,50,2411,2411],"questionIndices":[14,35,26,20,7,3,49,2,28,42],"judgmentIndices":[5,3,2,6,0,4,1],"groupNumber":2,"participantID":"r7gvngs3mjdqo4lb3nd6hm3b3uobqsrb","responseType":0,"internal_node_id":"0.0-6.0","time_elapsed":299569,"trial_index":15,"trial_type":"instructions","rt":30432,"view_history":"[{\"page_index\":0,\"viewing_time\":30431}]"},{"questionScores":[2403,2400,28,21,25,18,2399,50,2411,2411],"questionIndices":[14,35,26,20,7,3,49,2,28,42],"judgmentIndices":[5,3,2,6,0,4,1],"groupNumber":2,"participantID":"r7gvngs3mjdqo4lb3nd6hm3b3uobqsrb","responseType":0,"internal_node_id":"0.0-7.0","time_elapsed":304550,"trial_index":16,"trial_type":"survey-multi-choice","responses":"{\"Q0\":\"5 questions\"}","rt":3971},{"questionScores":[2403,2400,28,21,25,18,2399,50,2411,2411],"questionIndices":[14,35,26,20,7,3,49,2,28,42],"judgmentIndices":[5,3,2,6,0,4,1],"groupNumber":2,"participantID":"r7gvngs3mjdqo4lb3nd6hm3b3uobqsrb","responseType":0,"internal_node_id":"0.0-8.0","time_elapsed":329872,"trial_index":17,"trial_type":"survey-multi-choose","responses":"{\"Q0\":\"Reveal Answer\",\"Q1\":\"Reveal Answer\",\"Q2\":\"Reveal Answer\",\"Q3\":\"Reveal Answer\",\"Q4\":\"Keep Hidden\",\"Q5\":\"Reveal Answer\",\"Q6\":\"Keep Hidden\",\"Q7\":\"Keep Hidden\",\"Q8\":\"Keep Hidden\",\"Q9\":\"Keep Hidden\"}","rt":24315},{"questionScores":[2403,2400,28,21,25,18,2399,50,2411,2411],"questionIndices":[14,35,26,20,7,3,49,2,28,42],"judgmentIndices":[5,3,2,6,0,4,1],"groupNumber":2,"participantID":"r7gvngs3mjdqo4lb3nd6hm3b3uobqsrb","responseType":0,"internal_node_id":"0.0-9.0","time_elapsed":344037,"trial_index":18,"trial_type":"instructions","rt":13156,"view_history":"[{\"page_index\":0,\"viewing_time\":13155}]"}],"__v":0}
{"_id":{"$oid":"5ad19e9edbf73f000478adec"},"data":{"responseType":1,"participantID":"xux7rnfbnjxdf5khynyor8j1j9qlzp6l","groupNumber":1},"__v":0}
{"_id":{"$oid":"5ad19ebcdbf73f000478aded"},"data":{"responseType":1,"participantID":"obnxfdgzqgsvha5696htadly88z20ag4","groupNumber":0},"__v":0}
{"_id":{"$oid":"5ad19ecfdbf73f000478adee"},"data":{"responseType":1,"participantID":"w89799cmjwh2hv2tnqrk892zp2greom0","groupNumber":0},"__v":0}
{"_id":{"$oid":"5ad19edbdbf73f000478adef"},"data":{"responseType":1,"participantID":"mdp9epaxqq0apuz1lpqxnydjo8ls746a","groupNumber":1},"__v":0}
{"_id":{"$oid":"5ad19eefdbf73f000478adf0"},"data":{"responseType":1,"participantID":"6y4wfqo9wqgde0j09538k7aa7usbc3e7","groupNumber":2},"__v":0}
{"_id":{"$oid":"5ad77b90e704f400046f9594"},"data":{"responseType":1,"participantID":"qzhkjlru5eulbupzbw2377fd51n9cqpy","groupNumber":2},"__v":0}
{"_id":{"$oid":"5ad77ddce704f400046f9595"},"data":{"responseType":1,"participantID":"9543ar5qbz3ectkkdqoexf9lurur57za","groupNumber":2},"__v":0}
{"_id":{"$oid":"5ad77ddce704f400046f9596"},"data":{"responseType":1,"participantID":"7ov3go08xy77yt73ou8tc79enl4c67mj","groupNumber":0},"__v":0}
{"_id":{"$oid":"5ad77ddde704f400046f9597"},"data":{"responseType":1,"participantID":"qwt23r6c9kn5tl73h6kh6kcdqm1nz4oq","groupNumber":0},"__v":0}
{"_id":{"$oid":"5ad77deae704f400046f9598"},"data":{"responseType":1,"participantID":"1a6hvsu5ghm07dusso38okbt09960cyk","groupNumber":0},"__v":0}
{"_id":{"$oid":"5ad77df0e704f400046f9599"},"data":{"responseType":1,"participantID":"x13kw2l5c1n22d26d94nn2s184amz7jf","groupNumber":1},"__v":0}
{"_id":{"$oid":"5ad77dfce704f400046f959a"},"data":{"responseType":1,"participantID":"0h87wbod9u5s2jhu378mk80ofeojpepo","groupNumber":0},"__v":0}
{"_id":{"$oid":"5ad77dfee704f400046f959b"},"data":{"responseType":1,"participantID":"c0us1u5xkrd19038tj58opf57cjfuqpy","groupNumber":1},"__v":0}
{"_id":{"$oid":"5ad77e02e704f400046f959c"},"data":{"responseType":1,"participantID":"fyje80h6mceecvo1br6uup0gqk9cea4g","groupNumber":1},"__v":0}
{"_id":{"$oid":"5ad77e06e704f400046f959d"},"data":{"responseType":1,"participantID":"yf3vj6332pej7yl9tfzf1hhchz7mm8oo","groupNumber":2},"__v":0}
{"_id":{"$oid":"5ad77e0fe704f400046f959e"},"data":{"responseType":1,"participantID":"ah288h7cregcj9kknw0g7t5m4g2fwfx1","groupNumber":0},"__v":0}
{"_id":{"$oid":"5ad77e16e704f400046f959f"},"data":{"responseType":1,"participantID":"p1nehat5h8la1qhyxhmdf83upctpjl0q","groupNumber":0},"__v":0}
{"_id":{"$oid":"5ad77e2ce704f400046f95a0"},"data":{"responseType":1,"participantID":"jje55ckudvuf6ff1ee9db7hyo4kuz4ad","groupNumber":0},"__v":0}
{"_id":{"$oid":"5ad77e34e704f400046f95a1"},"data":{"responseType":1,"participantID":"7sypja54mk2x04kd82bl131r1r7rhmzt","groupNumber":0},"__v":0}
{"_id":{"$oid":"5ad77e36e704f400046f95a2"},"data":{"responseType":1,"participantID":"kd74sbkm5u7u0b0424a6fm5d76wagaw6","groupNumber":2},"__v":0}
{"_id":{"$oid":"5ad77e50e704f400046f95a3"},"data":{"responseType":1,"participantID":"wcoz0wruhmnax6mrrhg3proojyrfved6","groupNumber":2},"__v":0}
{"_id":{"$oid":"5ad77e55e704f400046f95a4"},"data":{"responseType":1,"participantID":"ayu4kns51q6h7s98dyr6jfrp89pnhgv1","groupNumber":1},"__v":0}
{"_id":{"$oid":"5ad77e55e704f400046f95a5"},"data":{"responseType":1,"participantID":"ctvk2x49005gcsue5wg1orap0zs0w3ym","groupNumber":0},"__v":0}
{"_id":{"$oid":"5ad77e58e704f400046f95a6"},"data":{"responseType":1,"participantID":"lw09jrv14phz7llpo1z65rwgsjetb5e3","groupNumber":0},"__v":0}
{"_id":{"$oid":"5ad77e5be704f400046f95a7"},"data":{"responseType":1,"participantID":"aul1adapv0ek9y2rnn2n1t6g5abwwnaj","groupNumber":2},"__v":0}
{"_id":{"$oid":"5ad77e5de704f400046f95a8"},"data":{"responseType":1,"participantID":"cm59wk49lc3l66j4373g342cx2d2v0bm","groupNumber":1},"__v":0}
{"_id":{"$oid":"5ad77e60e704f400046f95a9"},"data":{"responseType":1,"participantID":"3burenqmmt71nbk9sznc0t6gadf8wrlk","groupNumber":2},"__v":0}
{"_id":{"$oid":"5ad77ebfe704f400046f95aa"},"data":{"responseType":1,"participantID":"tea185c377fp5xldg6r6evjz9t0m95g0","groupNumber":1},"__v":0}
{"_id":{"$oid":"5ad77ed5e704f400046f95ab"},"data":{"responseType":1,"participantID":"hczxorcd6py0pwrty95zbp2rzqdvv66e","groupNumber":2},"__v":0}
{"_id":{"$oid":"5ad77edbe704f400046f95ac"},"data":{"responseType":1,"participantID":"dqaowpd3zrmfu9c15wxgbv4931a3b30a","groupNumber":2},"__v":0}
{"_id":{"$oid":"5ad77eebe704f400046f95ad"},"data":{"responseType":1,"participantID":"cw83ju00u2ws06t1ks1ujbj6u5qxa2gr","groupNumber":0},"__v":0}
{"_id":{"$oid":"5ad77f00e704f400046f95ae"},"data":{"responseType":1,"participantID":"j5pqc5rw605zjb28rtkdnun58ksb7bn0","groupNumber":1},"__v":0}
{"_id":{"$oid":"5ad77f01e704f400046f95af"},"data":{"responseType":1,"participantID":"4us7m21mnkl7uumgnxv176zzelso451v","groupNumber":2},"__v":0}
{"_id":{"$oid":"5ad77f03e704f400046f95b0"},"data":{"responseType":1,"participantID":"ur45v84q7nqflc31pckaf3tjqp2bda6w","groupNumber":0},"__v":0}
{"_id":{"$oid":"5ad77f05e704f400046f95b1"},"data":{"responseType":1,"participantID":"xg82susgw46ncwm5xb6n2zrh7xq68db6","groupNumber":2},"__v":0}
{"_id":{"$oid":"5ad77f09e704f400046f95b2"},"data":[{"questionScores":[2403,24,2409,22,2398,18,43,26,2418,2410],"questionIndices":[4,7,3,33,0,43,22,48,25,17],"judgmentIndices":[4,2,3,1,6,0],"groupNumber":0,"participantID":"7ov3go08xy77yt73ou8tc79enl4c67mj","responseType":0,"internal_node_id":"0.0-0.0","time_elapsed":5476,"trial_index":0,"trial_type":"survey-multi-choice","responses":"{\"Q0\":\"I consent to participate\"}","rt":5464},{"questionScores":[2403,24,2409,22,2398,18,43,26,2418,2410],"questionIndices":[4,7,3,33,0,43,22,48,25,17],"judgmentIndices":[4,2,3,1,6,0],"groupNumber":0,"participantID":"7ov3go08xy77yt73ou8tc79enl4c67mj","responseType":0,"internal_node_id":"0.0-1.0","time_elapsed":6479,"trial_index":1,"trial_type":"call-function"},{"questionScores":[2403,24,2409,22,2398,18,43,26,2418,2410],"questionIndices":[4,7,3,33,0,43,22,48,25,17],"judgmentIndices":[4,2,3,1,6,0],"groupNumber":0,"participantID":"7ov3go08xy77yt73ou8tc79enl4c67mj","responseType":0,"internal_node_id":"0.0-2.0","time_elapsed":8542,"trial_index":2,"trial_type":"instructions","rt":2061,"view_history":"[{\"page_index\":0,\"viewing_time\":2061}]"},{"questionScores":[2403,24,2409,22,2398,18,43,26,2418,2410],"questionIndices":[4,7,3,33,0,43,22,48,25,17],"judgmentIndices":[4,2,3,1,6,0],"groupNumber":0,"participantID":"7ov3go08xy77yt73ou8tc79enl4c67mj","responseType":0,"internal_node_id":"0.0-3.0","time_elapsed":16629,"trial_index":3,"trial_type":"instructions","rt":7087,"view_history":"[{\"page_index\":0,\"viewing_time\":7087}]"},{"questionScores":[2403,24,2409,22,2398,18,43,26,2418,2410],"questionIndices":[4,7,3,33,0,43,22,48,25,17],"judgmentIndices":[4,2,3,1,6,0],"groupNumber":0,"participantID":"7ov3go08xy77yt73ou8tc79enl4c67mj","responseType":0,"internal_node_id":"0.0-4.0","time_elapsed":20735,"trial_index":4,"trial_type":"survey-multi-choice","responses":"{\"Q0\":\"10 questions\"}","rt":3101},{"questionScores":[2403,24,2409,22,2398,18,43,26,2418,2410],"questionIndices":[4,7,3,33,0,43,22,48,25,17],"judgmentIndices":[4,2,3,1,6,0],"groupNumber":0,"participantID":"7ov3go08xy77yt73ou8tc79enl4c67mj","responseType":0,"internal_node_id":"0.0-5.0-0.0","time_elapsed":36683,"trial_index":5,"trial_type":"survey-likert","responses":"{\"Q0\":\"2\",\"Q1\":\"2\",\"Q2\":\"2\",\"Q3\":\"3\",\"Q4\":\"2\",\"Q5\":\"2\"}","rt":14944},{"questionScores":[2403,24,2409,22,2398,18,43,26,2418,2410],"questionIndices":[4,7,3,33,0,43,22,48,25,17],"judgmentIndices":[4,2,3,1,6,0],"groupNumber":0,"participantID":"7ov3go08xy77yt73ou8tc79enl4c67mj","responseType":0,"internal_node_id":"0.0-5.0-1.0","time_elapsed":51891,"trial_index":6,"trial_type":"survey-likert","responses":"{\"Q0\":\"4\",\"Q1\":\"4\",\"Q2\":\"4\",\"Q3\":\"4\",\"Q4\":\"3\",\"Q5\":\"3\"}","rt":14202},{"questionScores":[2403,24,2409,22,2398,18,43,26,2418,2410],"questionIndices":[4,7,3,33,0,43,22,48,25,17],"judgmentIndices":[4,2,3,1,6,0],"groupNumber":0,"participantID":"7ov3go08xy77yt73ou8tc79enl4c67mj","responseType":0,"internal_node_id":"0.0-5.0-2.0","time_elapsed":68408,"trial_index":7,"trial_type":"survey-likert","responses":"{\"Q0\":\"5\",\"Q1\":\"5\",\"Q2\":\"5\",\"Q3\":\"4\",\"Q4\":\"4\",\"Q5\":\"4\"}","rt":15513},{"questionScores":[2403,24,2409,22,2398,18,43,26,2418,2410],"questionIndices":[4,7,3,33,0,43,22,48,25,17],"judgmentIndices":[4,2,3,1,6,0],"groupNumber":0,"participantID":"7ov3go08xy77yt73ou8tc79enl4c67mj","responseType":0,"internal_node_id":"0.0-5.0-3.0","time_elapsed":211921,"trial_index":8,"trial_type":"survey-likert","responses":"{\"Q0\":\"3\",\"Q1\":\"2\",\"Q2\":\"2\",\"Q3\":\"2\",\"Q4\":\"3\",\"Q5\":\"3\"}","rt":142509},{"questionScores":[2403,24,2409,22,2398,18,43,26,2418,2410],"questionIndices":[4,7,3,33,0,43,22,48,25,17],"judgmentIndices":[4,2,3,1,6,0],"groupNumber":0,"participantID":"7ov3go08xy77yt73ou8tc79enl4c67mj","responseType":0,"internal_node_id":"0.0-5.0-4.0","time_elapsed":222992,"trial_index":9,"trial_type":"survey-likert","responses":"{\"Q0\":\"4\",\"Q1\":\"4\",\"Q2\":\"3\",\"Q3\":\"4\",\"Q4\":\"4\",\"Q5\":\"4\"}","rt":10066},{"questionScores":[2403,24,2409,22,2398,18,43,26,2418,2410],"questionIndices":[4,7,3,33,0,43,22,48,25,17],"judgmentIndices":[4,2,3,1,6,0],"groupNumber":0,"participantID":"7ov3go08xy77yt73ou8tc79enl4c67mj","responseType":0,"internal_node_id":"0.0-5.0-5.0","time_elapsed":235863,"trial_index":10,"trial_type":"survey-likert","responses":"{\"Q0\":\"4\",\"Q1\":\"4\",\"Q2\":\"4\",\"Q3\":\"3\",\"Q4\":\"3\",\"Q5\":\"3\"}","rt":11868},{"questionScores":[2403,24,2409,22,2398,18,43,26,2418,2410],"questionIndices":[4,7,3,33,0,43,22,48,25,17],"judgmentIndices":[4,2,3,1,6,0],"groupNumber":0,"participantID":"7ov3go08xy77yt73ou8tc79enl4c67mj","responseType":0,"internal_node_id":"0.0-5.0-6.0","time_elapsed":248398,"trial_index":11,"trial_type":"survey-likert","responses":"{\"Q0\":\"4\",\"Q1\":\"3\",\"Q2\":\"3\",\"Q3\":\"4\",\"Q4\":\"3\",\"Q5\":\"3\"}","rt":11531},{"questionScores":[2403,24,2409,22,2398,18,43,26,2418,2410],"questionIndices":[4,7,3,33,0,43,22,48,25,17],"judgmentIndices":[4,2,3,1,6,0],"groupNumber":0,"participantID":"7ov3go08xy77yt73ou8tc79enl4c67mj","responseType":0,"internal_node_id":"0.0-5.0-7.0","time_elapsed":259518,"trial_index":12,"trial_type":"survey-likert","responses":"{\"Q0\":\"2\",\"Q1\":\"3\",\"Q2\":\"3\",\"Q3\":\"2\",\"Q4\":\"2\",\"Q5\":\"3\"}","rt":10115},{"questionScores":[2403,24,2409,22,2398,18,43,26,2418,2410],"questionIndices":[4,7,3,33,0,43,22,48,25,17],"judgmentIndices":[4,2,3,1,6,0],"groupNumber":0,"participantID":"7ov3go08xy77yt73ou8tc79enl4c67mj","responseType":0,"internal_node_id":"0.0-5.0-8.0","time_elapsed":269356,"trial_index":13,"trial_type":"survey-likert","responses":"{\"Q0\":\"2\",\"Q1\":\"2\",\"Q2\":\"2\",\"Q3\":\"2\",\"Q4\":\"2\",\"Q5\":\"2\"}","rt":8834},{"questionScores":[2403,24,2409,22,2398,18,43,26,2418,2410],"questionIndices":[4,7,3,33,0,43,22,48,25,17],"judgmentIndices":[4,2,3,1,6,0],"groupNumber":0,"participantID":"7ov3go08xy77yt73ou8tc79enl4c67mj","responseType":0,"internal_node_id":"0.0-5.0-9.0","time_elapsed":279644,"trial_index":14,"trial_type":"survey-likert","responses":"{\"Q0\":\"3\",\"Q1\":\"2\",\"Q2\":\"2\",\"Q3\":\"3\",\"Q4\":\"2\",\"Q5\":\"2\"}","rt":9284},{"questionScores":[2403,24,2409,22,2398,18,43,26,2418,2410],"questionIndices":[4,7,3,33,0,43,22,48,25,17],"judgmentIndices":[4,2,3,1,6,0],"groupNumber":0,"participantID":"7ov3go08xy77yt73ou8tc79enl4c67mj","responseType":0,"internal_node_id":"0.0-6.0","time_elapsed":284778,"trial_index":15,"trial_type":"instructions","rt":4134,"view_history":"[{\"page_index\":0,\"viewing_time\":4133}]"},{"questionScores":[2403,24,2409,22,2398,18,43,26,2418,2410],"questionIndices":[4,7,3,33,0,43,22,48,25,17],"judgmentIndices":[4,2,3,1,6,0],"groupNumber":0,"participantID":"7ov3go08xy77yt73ou8tc79enl4c67mj","responseType":0,"internal_node_id":"0.0-7.0","time_elapsed":288436,"trial_index":16,"trial_type":"survey-multi-choice","responses":"{\"Q0\":\"5 questions\"}","rt":2654},{"questionScores":[2403,24,2409,22,2398,18,43,26,2418,2410],"questionIndices":[4,7,3,33,0,43,22,48,25,17],"judgmentIndices":[4,2,3,1,6,0],"groupNumber":0,"participantID":"7ov3go08xy77yt73ou8tc79enl4c67mj","responseType":0,"internal_node_id":"0.0-8.0","time_elapsed":302850,"trial_index":17,"trial_type":"survey-multi-choose","responses":"{\"Q0\":\"Reveal Answer\",\"Q1\":\"Reveal Answer\",\"Q2\":\"Keep Hidden\",\"Q3\":\"Keep Hidden\",\"Q4\":\"Reveal Answer\",\"Q5\":\"Reveal Answer\",\"Q6\":\"Reveal Answer\",\"Q7\":\"Keep Hidden\",\"Q8\":\"Keep Hidden\",\"Q9\":\"Keep Hidden\"}","rt":13397},{"questionScores":[2403,24,2409,22,2398,18,43,26,2418,2410],"questionIndices":[4,7,3,33,0,43,22,48,25,17],"judgmentIndices":[4,2,3,1,6,0],"groupNumber":0,"participantID":"7ov3go08xy77yt73ou8tc79enl4c67mj","responseType":0,"internal_node_id":"0.0-9.0","time_elapsed":306330,"trial_index":18,"trial_type":"instructions","rt":2474,"view_history":"[{\"page_index\":0,\"viewing_time\":2474}]"}],"__v":0}
{"_id":{"$oid":"5ad77f0ee704f400046f95b3"},"data":[{"questionScores":[2394,2404,23,35,26,2415,2428,9,2417,26],"questionIndices":[23,46,48,29,8,22,38,13,44,30],"judgmentIndices":[1,0,4,6,3,5,2],"groupNumber":2,"participantID":"3burenqmmt71nbk9sznc0t6gadf8wrlk","responseType":0,"internal_node_id":"0.0-0.0","time_elapsed":3728,"trial_index":0,"trial_type":"survey-multi-choice","responses":"{\"Q0\":\"I consent to participate\"}","rt":3713},{"questionScores":[2394,2404,23,35,26,2415,2428,9,2417,26],"questionIndices":[23,46,48,29,8,22,38,13,44,30],"judgmentIndices":[1,0,4,6,3,5,2],"groupNumber":2,"participantID":"3burenqmmt71nbk9sznc0t6gadf8wrlk","responseType":0,"internal_node_id":"0.0-1.0","time_elapsed":4734,"trial_index":1,"trial_type":"call-function"},{"questionScores":[2394,2404,23,35,26,2415,2428,9,2417,26],"questionIndices":[23,46,48,29,8,22,38,13,44,30],"judgmentIndices":[1,0,4,6,3,5,2],"groupNumber":2,"participantID":"3burenqmmt71nbk9sznc0t6gadf8wrlk","responseType":0,"internal_node_id":"0.0-2.0","time_elapsed":6040,"trial_index":2,"trial_type":"instructions","rt":1306,"view_history":"[{\"page_index\":0,\"viewing_time\":1305}]"},{"questionScores":[2394,2404,23,35,26,2415,2428,9,2417,26],"questionIndices":[23,46,48,29,8,22,38,13,44,30],"judgmentIndices":[1,0,4,6,3,5,2],"groupNumber":2,"participantID":"3burenqmmt71nbk9sznc0t6gadf8wrlk","responseType":0,"internal_node_id":"0.0-3.0","time_elapsed":8403,"trial_index":3,"trial_type":"instructions","rt":1361,"view_history":"[{\"page_index\":0,\"viewing_time\":1361}]"},{"questionScores":[2394,2404,23,35,26,2415,2428,9,2417,26],"questionIndices":[23,46,48,29,8,22,38,13,44,30],"judgmentIndices":[1,0,4,6,3,5,2],"groupNumber":2,"participantID":"3burenqmmt71nbk9sznc0t6gadf8wrlk","responseType":0,"internal_node_id":"0.0-4.0","time_elapsed":12436,"trial_index":4,"trial_type":"survey-multi-choice","responses":"{\"Q0\":\"10 questions\"}","rt":3023},{"questionScores":[2394,2404,23,35,26,2415,2428,9,2417,26],"questionIndices":[23,46,48,29,8,22,38,13,44,30],"judgmentIndices":[1,0,4,6,3,5,2],"groupNumber":2,"participantID":"3burenqmmt71nbk9sznc0t6gadf8wrlk","responseType":0,"internal_node_id":"0.0-5.0-0.0","time_elapsed":29890,"trial_index":5,"trial_type":"survey-likert","responses":"{\"Q0\":\"4\",\"Q1\":\"4\",\"Q2\":\"3\",\"Q3\":\"3\",\"Q4\":\"4\",\"Q5\":\"3\",\"Q6\":\"2\"}","rt":16441},{"questionScores":[2394,2404,23,35,26,2415,2428,9,2417,26],"questionIndices":[23,46,48,29,8,22,38,13,44,30],"judgmentIndices":[1,0,4,6,3,5,2],"groupNumber":2,"participantID":"3burenqmmt71nbk9sznc0t6gadf8wrlk","responseType":0,"internal_node_id":"0.0-5.0-1.0","time_elapsed":41129,"trial_index":6,"trial_type":"survey-likert","responses":"{\"Q0\":\"4\",\"Q1\":\"4\",\"Q2\":\"3\",\"Q3\":\"4\",\"Q4\":\"5\",\"Q5\":\"3\",\"Q6\":\"3\"}","rt":10229},{"questionScores":[2394,2404,23,35,26,2415,2428,9,2417,26],"questionIndices":[23,46,48,29,8,22,38,13,44,30],"judgmentIndices":[1,0,4,6,3,5,2],"groupNumber":2,"participantID":"3burenqmmt71nbk9sznc0t6gadf8wrlk","responseType":0,"internal_node_id":"0.0-5.0-2.0","time_elapsed":53697,"trial_index":7,"trial_type":"survey-likert","responses":"{\"Q0\":\"4\",\"Q1\":\"3\",\"Q2\":\"2\",\"Q3\":\"3\",\"Q4\":\"4\",\"Q5\":\"4\",\"Q6\":\"2\"}","rt":11558},{"questionScores":[2394,2404,23,35,26,2415,2428,9,2417,26],"questionIndices":[23,46,48,29,8,22,38,13,44,30],"judgmentIndices":[1,0,4,6,3,5,2],"groupNumber":2,"participantID":"3burenqmmt71nbk9sznc0t6gadf8wrlk","responseType":0,"internal_node_id":"0.0-5.0-3.0","time_elapsed":65190,"trial_index":8,"trial_type":"survey-likert","responses":"{\"Q0\":\"4\",\"Q1\":\"5\",\"Q2\":\"3\",\"Q3\":\"3\",\"Q4\":\"4\",\"Q5\":\"4\",\"Q6\":\"2\"}","rt":10484},{"questionScores":[2394,2404,23,35,26,2415,2428,9,2417,26],"questionIndices":[23,46,48,29,8,22,38,13,44,30],"judgmentIndices":[1,0,4,6,3,5,2],"groupNumber":2,"participantID":"3burenqmmt71nbk9sznc0t6gadf8wrlk","responseType":0,"internal_node_id":"0.0-5.0-4.0","time_elapsed":77520,"trial_index":9,"trial_type":"survey-likert","responses":"{\"Q0\":\"3\",\"Q1\":\"3\",\"Q2\":\"4\",\"Q3\":\"5\",\"Q4\":\"2\",\"Q5\":\"2\",\"Q6\":\"2\"}","rt":11319},{"questionScores":[2394,2404,23,35,26,2415,2428,9,2417,26],"questionIndices":[23,46,48,29,8,22,38,13,44,30],"judgmentIndices":[1,0,4,6,3,5,2],"groupNumber":2,"participantID":"3burenqmmt71nbk9sznc0t6gadf8wrlk","responseType":0,"internal_node_id":"0.0-5.0-5.0","time_elapsed":89083,"trial_index":10,"trial_type":"survey-likert","responses":"{\"Q0\":\"4\",\"Q1\":\"5\",\"Q2\":\"5\",\"Q3\":\"4\",\"Q4\":\"5\",\"Q5\":\"5\",\"Q6\":\"4\"}","rt":10552},{"questionScores":[2394,2404,23,35,26,2415,2428,9,2417,26],"questionIndices":[23,46,48,29,8,22,38,13,44,30],"judgmentIndices":[1,0,4,6,3,5,2],"groupNumber":2,"participantID":"3burenqmmt71nbk9sznc0t6gadf8wrlk","responseType":0,"internal_node_id":"0.0-5.0-6.0","time_elapsed":105135,"trial_index":11,"trial_type":"survey-likert","responses":"{\"Q0\":\"4\",\"Q1\":\"5\",\"Q2\":\"4\",\"Q3\":\"3\",\"Q4\":\"4\",\"Q5\":\"4\",\"Q6\":\"4\"}","rt":15043},{"questionScores":[2394,2404,23,35,26,2415,2428,9,2417,26],"questionIndices":[23,46,48,29,8,22,38,13,44,30],"judgmentIndices":[1,0,4,6,3,5,2],"groupNumber":2,"participantID":"3burenqmmt71nbk9sznc0t6gadf8wrlk","responseType":0,"internal_node_id":"0.0-5.0-7.0","time_elapsed":114574,"trial_index":12,"trial_type":"survey-likert","responses":"{\"Q0\":\"2\",\"Q1\":\"3\",\"Q2\":\"3\",\"Q3\":\"4\",\"Q4\":\"2\",\"Q5\":\"3\",\"Q6\":\"4\"}","rt":8427},{"questionScores":[2394,2404,23,35,26,2415,2428,9,2417,26],"questionIndices":[23,46,48,29,8,22,38,13,44,30],"judgmentIndices":[1,0,4,6,3,5,2],"groupNumber":2,"participantID":"3burenqmmt71nbk9sznc0t6gadf8wrlk","responseType":0,"internal_node_id":"0.0-5.0-8.0","time_elapsed":129762,"trial_index":13,"trial_type":"survey-likert","responses":"{\"Q0\":\"3\",\"Q1\":\"2\",\"Q2\":\"3\",\"Q3\":\"4\",\"Q4\":\"3\",\"Q5\":\"3\",\"Q6\":\"2\"}","rt":14179},{"questionScores":[2394,2404,23,35,26,2415,2428,9,2417,26],"questionIndices":[23,46,48,29,8,22,38,13,44,30],"judgmentIndices":[1,0,4,6,3,5,2],"groupNumber":2,"participantID":"3burenqmmt71nbk9sznc0t6gadf8wrlk","responseType":0,"internal_node_id":"0.0-5.0-9.0","time_elapsed":141640,"trial_index":14,"trial_type":"survey-likert","responses":"{\"Q0\":\"4\",\"Q1\":\"5\",\"Q2\":\"5\",\"Q3\":\"4\",\"Q4\":\"3\",\"Q5\":\"4\",\"Q6\":\"4\"}","rt":10867},{"questionScores":[2394,2404,23,35,26,2415,2428,9,2417,26],"questionIndices":[23,46,48,29,8,22,38,13,44,30],"judgmentIndices":[1,0,4,6,3,5,2],"groupNumber":2,"participantID":"3burenqmmt71nbk9sznc0t6gadf8wrlk","responseType":0,"internal_node_id":"0.0-6.0","time_elapsed":147753,"trial_index":15,"trial_type":"instructions","rt":5113,"view_history":"[{\"page_index\":0,\"viewing_time\":5113}]"},{"questionScores":[2394,2404,23,35,26,2415,2428,9,2417,26],"questionIndices":[23,46,48,29,8,22,38,13,44,30],"judgmentIndices":[1,0,4,6,3,5,2],"groupNumber":2,"participantID":"3burenqmmt71nbk9sznc0t6gadf8wrlk","responseType":0,"internal_node_id":"0.0-7.0","time_elapsed":151005,"trial_index":16,"trial_type":"survey-multi-choice","responses":"{\"Q0\":\"5 questions\"}","rt":2241},{"questionScores":[2394,2404,23,35,26,2415,2428,9,2417,26],"questionIndices":[23,46,48,29,8,22,38,13,44,30],"judgmentIndices":[1,0,4,6,3,5,2],"groupNumber":2,"participantID":"3burenqmmt71nbk9sznc0t6gadf8wrlk","responseType":0,"internal_node_id":"0.0-8.0","time_elapsed":170363,"trial_index":17,"trial_type":"survey-multi-choose","responses":"{\"Q0\":\"Reveal Answer\",\"Q1\":\"Reveal Answer\",\"Q2\":\"Reveal Answer\",\"Q3\":\"Reveal Answer\",\"Q4\":\"Reveal Answer\",\"Q5\":\"Keep Hidden\",\"Q6\":\"Keep Hidden\",\"Q7\":\"Keep Hidden\",\"Q8\":\"Keep Hidden\",\"Q9\":\"Keep Hidden\"}","rt":18338},{"questionScores":[2394,2404,23,35,26,2415,2428,9,2417,26],"questionIndices":[23,46,48,29,8,22,38,13,44,30],"judgmentIndices":[1,0,4,6,3,5,2],"groupNumber":2,"participantID":"3burenqmmt71nbk9sznc0t6gadf8wrlk","responseType":0,"internal_node_id":"0.0-9.0","time_elapsed":176872,"trial_index":18,"trial_type":"instructions","rt":5493,"view_history":"[{\"page_index\":0,\"viewing_time\":5492}]"}],"__v":0}
{"_id":{"$oid":"5ad77f12e704f400046f95b4"},"data":[{"questionScores":[2416,16,2398,32,2394,2392,11,2394,21,20],"questionIndices":[23,27,25,14,19,32,48,31,11,24],"judgmentIndices":[2,0,4,3,1,6],"groupNumber":0,"participantID":"qwt23r6c9kn5tl73h6kh6kcdqm1nz4oq","responseType":0,"internal_node_id":"0.0-0.0","time_elapsed":3779,"trial_index":0,"trial_type":"survey-multi-choice","responses":"{\"Q0\":\"I consent to participate\"}","rt":3762},{"questionScores":[2416,16,2398,32,2394,2392,11,2394,21,20],"questionIndices":[23,27,25,14,19,32,48,31,11,24],"judgmentIndices":[2,0,4,3,1,6],"groupNumber":0,"participantID":"qwt23r6c9kn5tl73h6kh6kcdqm1nz4oq","responseType":0,"internal_node_id":"0.0-1.0","time_elapsed":4782,"trial_index":1,"trial_type":"call-function"},{"questionScores":[2416,16,2398,32,2394,2392,11,2394,21,20],"questionIndices":[23,27,25,14,19,32,48,31,11,24],"judgmentIndices":[2,0,4,3,1,6],"groupNumber":0,"participantID":"qwt23r6c9kn5tl73h6kh6kcdqm1nz4oq","responseType":0,"internal_node_id":"0.0-2.0","time_elapsed":7060,"trial_index":2,"trial_type":"instructions","rt":2278,"view_history":"[{\"page_index\":0,\"viewing_time\":2276}]"},{"questionScores":[2416,16,2398,32,2394,2392,11,2394,21,20],"questionIndices":[23,27,25,14,19,32,48,31,11,24],"judgmentIndices":[2,0,4,3,1,6],"groupNumber":0,"participantID":"qwt23r6c9kn5tl73h6kh6kcdqm1nz4oq","responseType":0,"internal_node_id":"0.0-3.0","time_elapsed":9947,"trial_index":3,"trial_type":"instructions","rt":1887,"view_history":"[{\"page_index\":0,\"viewing_time\":1887}]"},{"questionScores":[2416,16,2398,32,2394,2392,11,2394,21,20],"questionIndices":[23,27,25,14,19,32,48,31,11,24],"judgmentIndices":[2,0,4,3,1,6],"groupNumber":0,"participantID":"qwt23r6c9kn5tl73h6kh6kcdqm1nz4oq","responseType":0,"internal_node_id":"0.0-4.0","time_elapsed":13552,"trial_index":4,"trial_type":"survey-multi-choice","responses":"{\"Q0\":\"10 questions\"}","rt":2602},{"questionScores":[2416,16,2398,32,2394,2392,11,2394,21,20],"questionIndices":[23,27,25,14,19,32,48,31,11,24],"judgmentIndices":[2,0,4,3,1,6],"groupNumber":0,"participantID":"qwt23r6c9kn5tl73h6kh6kcdqm1nz4oq","responseType":0,"internal_node_id":"0.0-5.0-0.0","time_elapsed":60165,"trial_index":5,"trial_type":"survey-likert","responses":"{\"Q0\":\"0\",\"Q1\":\"3\",\"Q2\":\"4\",\"Q3\":\"0\",\"Q4\":\"0\",\"Q5\":\"0\"}","rt":45605},{"questionScores":[2416,16,2398,32,2394,2392,11,2394,21,20],"questionIndices":[23,27,25,14,19,32,48,31,11,24],"judgmentIndices":[2,0,4,3,1,6],"groupNumber":0,"participantID":"qwt23r6c9kn5tl73h6kh6kcdqm1nz4oq","responseType":0,"internal_node_id":"0.0-5.0-1.0","time_elapsed":77058,"trial_index":6,"trial_type":"survey-likert","responses":"{\"Q0\":\"6\",\"Q1\":\"6\",\"Q2\":\"6\",\"Q3\":\"6\",\"Q4\":\"0\",\"Q5\":\"0\"}","rt":15887},{"questionScores":[2416,16,2398,32,2394,2392,11,2394,21,20],"questionIndices":[23,27,25,14,19,32,48,31,11,24],"judgmentIndices":[2,0,4,3,1,6],"groupNumber":0,"participantID":"qwt23r6c9kn5tl73h6kh6kcdqm1nz4oq","responseType":0,"internal_node_id":"0.0-5.0-2.0","time_elapsed":99320,"trial_index":7,"trial_type":"survey-likert","responses":"{\"Q0\":\"0\",\"Q1\":\"3\",\"Q2\":\"5\",\"Q3\":\"1\",\"Q4\":\"0\",\"Q5\":\"0\"}","rt":21258},{"questionScores":[2416,16,2398,32,2394,2392,11,2394,21,20],"questionIndices":[23,27,25,14,19,32,48,31,11,24],"judgmentIndices":[2,0,4,3,1,6],"groupNumber":0,"participantID":"qwt23r6c9kn5tl73h6kh6kcdqm1nz4oq","responseType":0,"internal_node_id":"0.0-5.0-3.0","time_elapsed":123276,"trial_index":8,"trial_type":"survey-likert","responses":"{\"Q0\":\"0\",\"Q1\":\"0\",\"Q2\":\"0\",\"Q3\":\"0\",\"Q4\":\"0\",\"Q5\":\"0\"}","rt":22049},{"questionScores":[2416,16,2398,32,2394,2392,11,2394,21,20],"questionIndices":[23,27,25,14,19,32,48,31,11,24],"judgmentIndices":[2,0,4,3,1,6],"groupNumber":0,"participantID":"qwt23r6c9kn5tl73h6kh6kcdqm1nz4oq","responseType":0,"internal_node_id":"0.0-5.0-4.0","time_elapsed":140883,"trial_index":9,"trial_type":"survey-likert","responses":"{\"Q0\":\"1\",\"Q1\":\"3\",\"Q2\":\"3\",\"Q3\":\"0\",\"Q4\":\"0\",\"Q5\":\"1\"}","rt":16601},{"questionScores":[2416,16,2398,32,2394,2392,11,2394,21,20],"questionIndices":[23,27,25,14,19,32,48,31,11,24],"judgmentIndices":[2,0,4,3,1,6],"groupNumber":0,"participantID":"qwt23r6c9kn5tl73h6kh6kcdqm1nz4oq","responseType":0,"internal_node_id":"0.0-5.0-5.0","time_elapsed":154548,"trial_index":10,"trial_type":"survey-likert","responses":"{\"Q0\":\"2\",\"Q1\":\"4\",\"Q2\":\"5\",\"Q3\":\"3\",\"Q4\":\"0\",\"Q5\":\"3\"}","rt":12660},{"questionScores":[2416,16,2398,32,2394,2392,11,2394,21,20],"questionIndices":[23,27,25,14,19,32,48,31,11,24],"judgmentIndices":[2,0,4,3,1,6],"groupNumber":0,"participantID":"qwt23r6c9kn5tl73h6kh6kcdqm1nz4oq","responseType":0,"internal_node_id":"0.0-5.0-6.0","time_elapsed":172635,"trial_index":11,"trial_type":"survey-likert","responses":"{\"Q0\":\"1\",\"Q1\":\"3\",\"Q2\":\"6\",\"Q3\":\"1\",\"Q4\":\"0\",\"Q5\":\"1\"}","rt":17082},{"questionScores":[2416,16,2398,32,2394,2392,11,2394,21,20],"questionIndices":[23,27,25,14,19,32,48,31,11,24],"judgmentIndices":[2,0,4,3,1,6],"groupNumber":0,"participantID":"qwt23r6c9kn5tl73h6kh6kcdqm1nz4oq","responseType":0,"internal_node_id":"0.0-5.0-7.0","time_elapsed":184699,"trial_index":12,"trial_type":"survey-likert","responses":"{\"Q0\":\"0\",\"Q1\":\"0\",\"Q2\":\"2\",\"Q3\":\"0\",\"Q4\":\"0\",\"Q5\":\"0\"}","rt":11058},{"questionScores":[2416,16,2398,32,2394,2392,11,2394,21,20],"questionIndices":[23,27,25,14,19,32,48,31,11,24],"judgmentIndices":[2,0,4,3,1,6],"groupNumber":0,"participantID":"qwt23r6c9kn5tl73h6kh6kcdqm1nz4oq","responseType":0,"internal_node_id":"0.0-5.0-8.0","time_elapsed":207259,"trial_index":13,"trial_type":"survey-likert","responses":"{\"Q0\":\"6\",\"Q1\":\"4\",\"Q2\":\"4\",\"Q3\":\"2\",\"Q4\":\"2\",\"Q5\":\"1\"}","rt":21553},{"questionScores":[2416,16,2398,32,2394,2392,11,2394,21,20],"questionIndices":[23,27,25,14,19,32,48,31,11,24],"judgmentIndices":[2,0,4,3,1,6],"groupNumber":0,"participantID":"qwt23r6c9kn5tl73h6kh6kcdqm1nz4oq","responseType":0,"internal_node_id":"0.0-5.0-9.0","time_elapsed":226916,"trial_index":14,"trial_type":"survey-likert","responses":"{\"Q0\":\"0\",\"Q1\":\"0\",\"Q2\":\"3\",\"Q3\":\"0\",\"Q4\":\"0\",\"Q5\":\"0\"}","rt":18651},{"questionScores":[2416,16,2398,32,2394,2392,11,2394,21,20],"questionIndices":[23,27,25,14,19,32,48,31,11,24],"judgmentIndices":[2,0,4,3,1,6],"groupNumber":0,"participantID":"qwt23r6c9kn5tl73h6kh6kcdqm1nz4oq","responseType":0,"internal_node_id":"0.0-6.0","time_elapsed":234748,"trial_index":15,"trial_type":"instructions","rt":6833,"view_history":"[{\"page_index\":0,\"viewing_time\":6832}]"},{"questionScores":[2416,16,2398,32,2394,2392,11,2394,21,20],"questionIndices":[23,27,25,14,19,32,48,31,11,24],"judgmentIndices":[2,0,4,3,1,6],"groupNumber":0,"participantID":"qwt23r6c9kn5tl73h6kh6kcdqm1nz4oq","responseType":0,"internal_node_id":"0.0-7.0","time_elapsed":238896,"trial_index":16,"trial_type":"survey-multi-choice","responses":"{\"Q0\":\"5 questions\"}","rt":3143},{"questionScores":[2416,16,2398,32,2394,2392,11,2394,21,20],"questionIndices":[23,27,25,14,19,32,48,31,11,24],"judgmentIndices":[2,0,4,3,1,6],"groupNumber":0,"participantID":"qwt23r6c9kn5tl73h6kh6kcdqm1nz4oq","responseType":0,"internal_node_id":"0.0-8.0","time_elapsed":269892,"trial_index":17,"trial_type":"survey-multi-choose","responses":"{\"Q0\":\"Keep Hidden\",\"Q1\":\"Reveal Answer\",\"Q2\":\"Keep Hidden\",\"Q3\":\"Keep Hidden\",\"Q4\":\"Reveal Answer\",\"Q5\":\"Reveal Answer\",\"Q6\":\"Reveal Answer\",\"Q7\":\"Keep Hidden\",\"Q8\":\"Reveal Answer\",\"Q9\":\"Keep Hidden\"}","rt":29984},{"questionScores":[2416,16,2398,32,2394,2392,11,2394,21,20],"questionIndices":[23,27,25,14,19,32,48,31,11,24],"judgmentIndices":[2,0,4,3,1,6],"groupNumber":0,"participantID":"qwt23r6c9kn5tl73h6kh6kcdqm1nz4oq","responseType":0,"internal_node_id":"0.0-9.0","time_elapsed":312619,"trial_index":18,"trial_type":"instructions","rt":41722,"view_history":"[{\"page_index\":0,\"viewing_time\":41722}]"}],"__v":0}
{"_id":{"$oid":"5ad77f1ae704f400046f95b5"},"data":[{"questionScores":[2411,2418,24,34,41,2396,2422,28,25,2401],"questionIndices":[23,14,10,32,15,11,16,4,46,5],"judgmentIndices":[6,0,4,3,1,2],"groupNumber":0,"participantID":"1a6hvsu5ghm07dusso38okbt09960cyk","responseType":0,"internal_node_id":"0.0-0.0","time_elapsed":5364,"trial_index":0,"trial_type":"survey-multi-choice","responses":"{\"Q0\":\"I consent to participate\"}","rt":5263},{"questionScores":[2411,2418,24,34,41,2396,2422,28,25,2401],"questionIndices":[23,14,10,32,15,11,16,4,46,5],"judgmentIndices":[6,0,4,3,1,2],"groupNumber":0,"participantID":"1a6hvsu5ghm07dusso38okbt09960cyk","responseType":0,"internal_node_id":"0.0-1.0","time_elapsed":6373,"trial_index":1,"trial_type":"call-function"},{"questionScores":[2411,2418,24,34,41,2396,2422,28,25,2401],"questionIndices":[23,14,10,32,15,11,16,4,46,5],"judgmentIndices":[6,0,4,3,1,2],"groupNumber":0,"participantID":"1a6hvsu5ghm07dusso38okbt09960cyk","responseType":0,"internal_node_id":"0.0-2.0","time_elapsed":7648,"trial_index":2,"trial_type":"instructions","rt":1273,"view_history":"[{\"page_index\":0,\"viewing_time\":1273}]"},{"questionScores":[2411,2418,24,34,41,2396,2422,28,25,2401],"questionIndices":[23,14,10,32,15,11,16,4,46,5],"judgmentIndices":[6,0,4,3,1,2],"groupNumber":0,"participantID":"1a6hvsu5ghm07dusso38okbt09960cyk","responseType":0,"internal_node_id":"0.0-3.0","time_elapsed":10968,"trial_index":3,"trial_type":"instructions","rt":2318,"view_history":"[{\"page_index\":0,\"viewing_time\":2317}]"},{"questionScores":[2411,2418,24,34,41,2396,2422,28,25,2401],"questionIndices":[23,14,10,32,15,11,16,4,46,5],"judgmentIndices":[6,0,4,3,1,2],"groupNumber":0,"participantID":"1a6hvsu5ghm07dusso38okbt09960cyk","responseType":0,"internal_node_id":"0.0-4.0","time_elapsed":15445,"trial_index":4,"trial_type":"survey-multi-choice","responses":"{\"Q0\":\"10 questions\"}","rt":3468},{"questionScores":[2411,2418,24,34,41,2396,2422,28,25,2401],"questionIndices":[23,14,10,32,15,11,16,4,46,5],"judgmentIndices":[6,0,4,3,1,2],"groupNumber":0,"participantID":"1a6hvsu5ghm07dusso38okbt09960cyk","responseType":0,"internal_node_id":"0.0-5.0-0.0","time_elapsed":37401,"trial_index":5,"trial_type":"survey-likert","responses":"{\"Q0\":\"1\",\"Q1\":\"4\",\"Q2\":\"5\",\"Q3\":\"2\",\"Q4\":\"0\",\"Q5\":\"3\"}","rt":20936},{"questionScores":[2411,2418,24,34,41,2396,2422,28,25,2401],"questionIndices":[23,14,10,32,15,11,16,4,46,5],"judgmentIndices":[6,0,4,3,1,2],"groupNumber":0,"participantID":"1a6hvsu5ghm07dusso38okbt09960cyk","responseType":0,"internal_node_id":"0.0-5.0-1.0","time_elapsed":58430,"trial_index":6,"trial_type":"survey-likert","responses":"{\"Q0\":\"6\",\"Q1\":\"6\",\"Q2\":\"6\",\"Q3\":\"6\",\"Q4\":\"0\",\"Q5\":\"6\"}","rt":20014},{"questionScores":[2411,2418,24,34,41,2396,2422,28,25,2401],"questionIndices":[23,14,10,32,15,11,16,4,46,5],"judgmentIndices":[6,0,4,3,1,2],"groupNumber":0,"participantID":"1a6hvsu5ghm07dusso38okbt09960cyk","responseType":0,"internal_node_id":"0.0-5.0-2.0","time_elapsed":81025,"trial_index":7,"trial_type":"survey-likert","responses":"{\"Q0\":\"0\",\"Q1\":\"3\",\"Q2\":\"6\",\"Q3\":\"1\",\"Q4\":\"0\",\"Q5\":\"1\"}","rt":21578},{"questionScores":[2411,2418,24,34,41,2396,2422,28,25,2401],"questionIndices":[23,14,10,32,15,11,16,4,46,5],"judgmentIndices":[6,0,4,3,1,2],"groupNumber":0,"participantID":"1a6hvsu5ghm07dusso38okbt09960cyk","responseType":0,"internal_node_id":"0.0-5.0-3.0","time_elapsed":101982,"trial_index":8,"trial_type":"survey-likert","responses":"{\"Q0\":\"0\",\"Q1\":\"0\",\"Q2\":\"5\",\"Q3\":\"2\",\"Q4\":\"0\",\"Q5\":\"1\"}","rt":19940},{"questionScores":[2411,2418,24,34,41,2396,2422,28,25,2401],"questionIndices":[23,14,10,32,15,11,16,4,46,5],"judgmentIndices":[6,0,4,3,1,2],"groupNumber":0,"participantID":"1a6hvsu5ghm07dusso38okbt09960cyk","responseType":0,"internal_node_id":"0.0-5.0-4.0","time_elapsed":126305,"trial_index":9,"trial_type":"survey-likert","responses":"{\"Q0\":\"4\",\"Q1\":\"6\",\"Q2\":\"5\",\"Q3\":\"5\",\"Q4\":\"0\",\"Q5\":\"4\"}","rt":22428},{"questionScores":[2411,2418,24,34,41,2396,2422,28,25,2401],"questionIndices":[23,14,10,32,15,11,16,4,46,5],"judgmentIndices":[6,0,4,3,1,2],"groupNumber":0,"participantID":"1a6hvsu5ghm07dusso38okbt09960cyk","responseType":0,"internal_node_id":"0.0-5.0-5.0","time_elapsed":145000,"trial_index":10,"trial_type":"survey-likert","responses":"{\"Q0\":\"1\",\"Q1\":\"0\",\"Q2\":\"4\",\"Q3\":\"0\",\"Q4\":\"0\",\"Q5\":\"0\"}","rt":17679},{"questionScores":[2411,2418,24,34,41,2396,2422,28,25,2401],"questionIndices":[23,14,10,32,15,11,16,4,46,5],"judgmentIndices":[6,0,4,3,1,2],"groupNumber":0,"participantID":"1a6hvsu5ghm07dusso38okbt09960cyk","responseType":0,"internal_node_id":"0.0-5.0-6.0","time_elapsed":158688,"trial_index":11,"trial_type":"survey-likert","responses":"{\"Q0\":\"0\",\"Q1\":\"0\",\"Q2\":\"5\",\"Q3\":\"0\",\"Q4\":\"0\",\"Q5\":\"0\"}","rt":12663},{"questionScores":[2411,2418,24,34,41,2396,2422,28,25,2401],"questionIndices":[23,14,10,32,15,11,16,4,46,5],"judgmentIndices":[6,0,4,3,1,2],"groupNumber":0,"participantID":"1a6hvsu5ghm07dusso38okbt09960cyk","responseType":0,"internal_node_id":"0.0-5.0-7.0","time_elapsed":182809,"trial_index":12,"trial_type":"survey-likert","responses":"{\"Q0\":\"3\",\"Q1\":\"5\",\"Q2\":\"4\",\"Q3\":\"2\",\"Q4\":\"0\",\"Q5\":\"3\"}","rt":23078},{"questionScores":[2411,2418,24,34,41,2396,2422,28,25,2401],"questionIndices":[23,14,10,32,15,11,16,4,46,5],"judgmentIndices":[6,0,4,3,1,2],"groupNumber":0,"participantID":"1a6hvsu5ghm07dusso38okbt09960cyk","responseType":0,"internal_node_id":"0.0-5.0-8.0","time_elapsed":203208,"trial_index":13,"trial_type":"survey-likert","responses":"{\"Q0\":\"4\",\"Q1\":\"5\",\"Q2\":\"4\",\"Q3\":\"3\",\"Q4\":\"0\",\"Q5\":\"3\"}","rt":19381},{"questionScores":[2411,2418,24,34,41,2396,2422,28,25,2401],"questionIndices":[23,14,10,32,15,11,16,4,46,5],"judgmentIndices":[6,0,4,3,1,2],"groupNumber":0,"participantID":"1a6hvsu5ghm07dusso38okbt09960cyk","responseType":0,"internal_node_id":"0.0-5.0-9.0","time_elapsed":218167,"trial_index":14,"trial_type":"survey-likert","responses":"{\"Q0\":\"4\",\"Q1\":\"6\",\"Q2\":\"5\",\"Q3\":\"2\",\"Q4\":\"0\",\"Q5\":\"4\"}","rt":13944},{"questionScores":[2411,2418,24,34,41,2396,2422,28,25,2401],"questionIndices":[23,14,10,32,15,11,16,4,46,5],"judgmentIndices":[6,0,4,3,1,2],"groupNumber":0,"participantID":"1a6hvsu5ghm07dusso38okbt09960cyk","responseType":0,"internal_node_id":"0.0-6.0","time_elapsed":226077,"trial_index":15,"trial_type":"instructions","rt":6909,"view_history":"[{\"page_index\":0,\"viewing_time\":6908}]"},{"questionScores":[2411,2418,24,34,41,2396,2422,28,25,2401],"questionIndices":[23,14,10,32,15,11,16,4,46,5],"judgmentIndices":[6,0,4,3,1,2],"groupNumber":0,"participantID":"1a6hvsu5ghm07dusso38okbt09960cyk","responseType":0,"internal_node_id":"0.0-7.0","time_elapsed":230224,"trial_index":16,"trial_type":"survey-multi-choice","responses":"{\"Q0\":\"5 questions\"}","rt":3137},{"questionScores":[2411,2418,24,34,41,2396,2422,28,25,2401],"questionIndices":[23,14,10,32,15,11,16,4,46,5],"judgmentIndices":[6,0,4,3,1,2],"groupNumber":0,"participantID":"1a6hvsu5ghm07dusso38okbt09960cyk","responseType":0,"internal_node_id":"0.0-8.0","time_elapsed":255915,"trial_index":17,"trial_type":"survey-multi-choose","responses":"{\"Q0\":\"Reveal Answer\",\"Q1\":\"Keep Hidden\",\"Q2\":\"Keep Hidden\",\"Q3\":\"Keep Hidden\",\"Q4\":\"Reveal Answer\",\"Q5\":\"Keep Hidden\",\"Q6\":\"Keep Hidden\",\"Q7\":\"Reveal Answer\",\"Q8\":\"Reveal Answer\",\"Q9\":\"Reveal Answer\"}","rt":24625},{"questionScores":[2411,2418,24,34,41,2396,2422,28,25,2401],"questionIndices":[23,14,10,32,15,11,16,4,46,5],"judgmentIndices":[6,0,4,3,1,2],"groupNumber":0,"participantID":"1a6hvsu5ghm07dusso38okbt09960cyk","responseType":0,"internal_node_id":"0.0-9.0","time_elapsed":309543,"trial_index":18,"trial_type":"instructions","rt":52612,"view_history":"[{\"page_index\":0,\"viewing_time\":52611}]"}],"__v":0}
{"_id":{"$oid":"5ad77f27e704f400046f95b6"},"data":{"responseType":1,"participantID":"0tow7qua8lj241fa6rd2xzqdyr3ahkgx","groupNumber":1},"__v":0}
{"_id":{"$oid":"5ad77f2ce704f400046f95b7"},"data":{"responseType":1,"participantID":"6cppylqelhmv7rhkk894baedejk2co1y","groupNumber":2},"__v":0}
{"_id":{"$oid":"5ad77f41e704f400046f95b8"},"data":[{"questionScores":[2392,25,2382,2404,2420,25,15,41,18,2415],"questionIndices":[31,27,2,4,3,29,24,6,22,48],"judgmentIndices":[5,2,4,1,0,6,3],"groupNumber":2,"participantID":"9543ar5qbz3ectkkdqoexf9lurur57za","responseType":0,"internal_node_id":"0.0-0.0","time_elapsed":3330,"trial_index":0,"trial_type":"survey-multi-choice","responses":"{\"Q0\":\"I consent to participate\"}","rt":3317},{"questionScores":[2392,25,2382,2404,2420,25,15,41,18,2415],"questionIndices":[31,27,2,4,3,29,24,6,22,48],"judgmentIndices":[5,2,4,1,0,6,3],"groupNumber":2,"participantID":"9543ar5qbz3ectkkdqoexf9lurur57za","responseType":0,"internal_node_id":"0.0-1.0","time_elapsed":4336,"trial_index":1,"trial_type":"call-function"},{"questionScores":[2392,25,2382,2404,2420,25,15,41,18,2415],"questionIndices":[31,27,2,4,3,29,24,6,22,48],"judgmentIndices":[5,2,4,1,0,6,3],"groupNumber":2,"participantID":"9543ar5qbz3ectkkdqoexf9lurur57za","responseType":0,"internal_node_id":"0.0-2.0","time_elapsed":6229,"trial_index":2,"trial_type":"instructions","rt":1892,"view_history":"[{\"page_index\":0,\"viewing_time\":1890}]"},{"questionScores":[2392,25,2382,2404,2420,25,15,41,18,2415],"questionIndices":[31,27,2,4,3,29,24,6,22,48],"judgmentIndices":[5,2,4,1,0,6,3],"groupNumber":2,"participantID":"9543ar5qbz3ectkkdqoexf9lurur57za","responseType":0,"internal_node_id":"0.0-3.0","time_elapsed":16653,"trial_index":3,"trial_type":"instructions","rt":9422,"view_history":"[{\"page_index\":0,\"viewing_time\":9421}]"},{"questionScores":[2392,25,2382,2404,2420,25,15,41,18,2415],"questionIndices":[31,27,2,4,3,29,24,6,22,48],"judgmentIndices":[5,2,4,1,0,6,3],"groupNumber":2,"participantID":"9543ar5qbz3ectkkdqoexf9lurur57za","responseType":0,"internal_node_id":"0.0-4.0","time_elapsed":20307,"trial_index":4,"trial_type":"survey-multi-choice","responses":"{\"Q0\":\"10 questions\"}","rt":2642},{"questionScores":[2392,25,2382,2404,2420,25,15,41,18,2415],"questionIndices":[31,27,2,4,3,29,24,6,22,48],"judgmentIndices":[5,2,4,1,0,6,3],"groupNumber":2,"participantID":"9543ar5qbz3ectkkdqoexf9lurur57za","responseType":0,"internal_node_id":"0.0-5.0-0.0","time_elapsed":54000,"trial_index":5,"trial_type":"survey-likert","responses":"{\"Q0\":\"4\",\"Q1\":\"1\",\"Q2\":\"3\",\"Q3\":\"1\",\"Q4\":\"2\",\"Q5\":\"1\",\"Q6\":\"2\"}","rt":32685},{"questionScores":[2392,25,2382,2404,2420,25,15,41,18,2415],"questionIndices":[31,27,2,4,3,29,24,6,22,48],"judgmentIndices":[5,2,4,1,0,6,3],"groupNumber":2,"participantID":"9543ar5qbz3ectkkdqoexf9lurur57za","responseType":0,"internal_node_id":"0.0-5.0-1.0","time_elapsed":80417,"trial_index":6,"trial_type":"survey-likert","responses":"{\"Q0\":\"4\",\"Q1\":\"3\",\"Q2\":\"2\",\"Q3\":\"0\",\"Q4\":\"4\",\"Q5\":\"2\",\"Q6\":\"0\"}","rt":25398},{"questionScores":[2392,25,2382,2404,2420,25,15,41,18,2415],"questionIndices":[31,27,2,4,3,29,24,6,22,48],"judgmentIndices":[5,2,4,1,0,6,3],"groupNumber":2,"participantID":"9543ar5qbz3ectkkdqoexf9lurur57za","responseType":0,"internal_node_id":"0.0-5.0-2.0","time_elapsed":115175,"trial_index":7,"trial_type":"survey-likert","responses":"{\"Q0\":\"1\",\"Q1\":\"1\",\"Q2\":\"2\",\"Q3\":\"1\",\"Q4\":\"2\",\"Q5\":\"2\",\"Q6\":\"5\"}","rt":33742},{"questionScores":[2392,25,2382,2404,2420,25,15,41,18,2415],"questionIndices":[31,27,2,4,3,29,24,6,22,48],"judgmentIndices":[5,2,4,1,0,6,3],"groupNumber":2,"participantID":"9543ar5qbz3ectkkdqoexf9lurur57za","responseType":0,"internal_node_id":"0.0-5.0-3.0","time_elapsed":138492,"trial_index":8,"trial_type":"survey-likert","responses":"{\"Q0\":\"2\",\"Q1\":\"1\",\"Q2\":\"4\",\"Q3\":\"4\",\"Q4\":\"3\",\"Q5\":\"1\",\"Q6\":\"5\"}","rt":22299},{"questionScores":[2392,25,2382,2404,2420,25,15,41,18,2415],"questionIndices":[31,27,2,4,3,29,24,6,22,48],"judgmentIndices":[5,2,4,1,0,6,3],"groupNumber":2,"participantID":"9543ar5qbz3ectkkdqoexf9lurur57za","responseType":0,"internal_node_id":"0.0-5.0-4.0","time_elapsed":172070,"trial_index":9,"trial_type":"survey-likert","responses":"{\"Q0\":\"2\",\"Q1\":\"5\",\"Q2\":\"3\",\"Q3\":\"2\",\"Q4\":\"5\",\"Q5\":\"3\",\"Q6\":\"6\"}","rt":32568},{"questionScores":[2392,25,2382,2404,2420,25,15,41,18,2415],"questionIndices":[31,27,2,4,3,29,24,6,22,48],"judgmentIndices":[5,2,4,1,0,6,3],"groupNumber":2,"participantID":"9543ar5qbz3ectkkdqoexf9lurur57za","responseType":0,"internal_node_id":"0.0-5.0-5.0","time_elapsed":202344,"trial_index":10,"trial_type":"survey-likert","responses":"{\"Q0\":\"2\",\"Q1\":\"4\",\"Q2\":\"2\",\"Q3\":\"1\",\"Q4\":\"3\",\"Q5\":\"1\",\"Q6\":\"0\"}","rt":29268},{"questionScores":[2392,25,2382,2404,2420,25,15,41,18,2415],"questionIndices":[31,27,2,4,3,29,24,6,22,48],"judgmentIndices":[5,2,4,1,0,6,3],"groupNumber":2,"participantID":"9543ar5qbz3ectkkdqoexf9lurur57za","responseType":0,"internal_node_id":"0.0-5.0-6.0","time_elapsed":229980,"trial_index":11,"trial_type":"survey-likert","responses":"{\"Q0\":\"4\",\"Q1\":\"1\",\"Q2\":\"2\",\"Q3\":\"3\",\"Q4\":\"4\",\"Q5\":\"2\",\"Q6\":\"0\"}","rt":26629},{"questionScores":[2392,25,2382,2404,2420,25,15,41,18,2415],"questionIndices":[31,27,2,4,3,29,24,6,22,48],"judgmentIndices":[5,2,4,1,0,6,3],"groupNumber":2,"participantID":"9543ar5qbz3ectkkdqoexf9lurur57za","responseType":0,"internal_node_id":"0.0-5.0-7.0","time_elapsed":251452,"trial_index":12,"trial_type":"survey-likert","responses":"{\"Q0\":\"4\",\"Q1\":\"3\",\"Q2\":\"1\",\"Q3\":\"1\",\"Q4\":\"5\",\"Q5\":\"4\",\"Q6\":\"0\"}","rt":20462},{"questionScores":[2392,25,2382,2404,2420,25,15,41,18,2415],"questionIndices":[31,27,2,4,3,29,24,6,22,48],"judgmentIndices":[5,2,4,1,0,6,3],"groupNumber":2,"participantID":"9543ar5qbz3ectkkdqoexf9lurur57za","responseType":0,"internal_node_id":"0.0-5.0-8.0","time_elapsed":269703,"trial_index":13,"trial_type":"survey-likert","responses":"{\"Q0\":\"3\",\"Q1\":\"1\",\"Q2\":\"3\",\"Q3\":\"2\",\"Q4\":\"3\",\"Q5\":\"1\",\"Q6\":\"0\"}","rt":17241},{"questionScores":[2392,25,2382,2404,2420,25,15,41,18,2415],"questionIndices":[31,27,2,4,3,29,24,6,22,48],"judgmentIndices":[5,2,4,1,0,6,3],"groupNumber":2,"participantID":"9543ar5qbz3ectkkdqoexf9lurur57za","responseType":0,"internal_node_id":"0.0-5.0-9.0","time_elapsed":284576,"trial_index":14,"trial_type":"survey-likert","responses":"{\"Q0\":\"1\",\"Q1\":\"2\",\"Q2\":\"4\",\"Q3\":\"2\",\"Q4\":\"5\",\"Q5\":\"4\",\"Q6\":\"6\"}","rt":13866},{"questionScores":[2392,25,2382,2404,2420,25,15,41,18,2415],"questionIndices":[31,27,2,4,3,29,24,6,22,48],"judgmentIndices":[5,2,4,1,0,6,3],"groupNumber":2,"participantID":"9543ar5qbz3ectkkdqoexf9lurur57za","responseType":0,"internal_node_id":"0.0-6.0","time_elapsed":289771,"trial_index":15,"trial_type":"instructions","rt":4194,"view_history":"[{\"page_index\":0,\"viewing_time\":4193}]"},{"questionScores":[2392,25,2382,2404,2420,25,15,41,18,2415],"questionIndices":[31,27,2,4,3,29,24,6,22,48],"judgmentIndices":[5,2,4,1,0,6,3],"groupNumber":2,"participantID":"9543ar5qbz3ectkkdqoexf9lurur57za","responseType":0,"internal_node_id":"0.0-7.0","time_elapsed":292497,"trial_index":16,"trial_type":"survey-multi-choice","responses":"{\"Q0\":\"5 questions\"}","rt":1722},{"questionScores":[2392,25,2382,2404,2420,25,15,41,18,2415],"questionIndices":[31,27,2,4,3,29,24,6,22,48],"judgmentIndices":[5,2,4,1,0,6,3],"groupNumber":2,"participantID":"9543ar5qbz3ectkkdqoexf9lurur57za","responseType":0,"internal_node_id":"0.0-8.0","time_elapsed":316700,"trial_index":17,"trial_type":"survey-multi-choose","responses":"{\"Q0\":\"Reveal Answer\",\"Q1\":\"Keep Hidden\",\"Q2\":\"Reveal Answer\",\"Q3\":\"Keep Hidden\",\"Q4\":\"Reveal Answer\",\"Q5\":\"Keep Hidden\",\"Q6\":\"Keep Hidden\",\"Q7\":\"Reveal Answer\",\"Q8\":\"Keep Hidden\",\"Q9\":\"Reveal Answer\"}","rt":23182},{"questionScores":[2392,25,2382,2404,2420,25,15,41,18,2415],"questionIndices":[31,27,2,4,3,29,24,6,22,48],"judgmentIndices":[5,2,4,1,0,6,3],"groupNumber":2,"participantID":"9543ar5qbz3ectkkdqoexf9lurur57za","responseType":0,"internal_node_id":"0.0-9.0","time_elapsed":360441,"trial_index":18,"trial_type":"instructions","rt":42725,"view_history":"[{\"page_index\":0,\"viewing_time\":42724}]"}],"__v":0}
{"_id":{"$oid":"5ad77f6ce704f400046f95b9"},"data":[{"questionScores":[2409,25,33,2380,33,2408,2407,21,2407,21],"questionIndices":[2,1,22,37,18,11,16,49,6,46],"judgmentIndices":[2,4,3,6,5,1,0],"groupNumber":2,"participantID":"kd74sbkm5u7u0b0424a6fm5d76wagaw6","responseType":0,"internal_node_id":"0.0-0.0","time_elapsed":4934,"trial_index":0,"trial_type":"survey-multi-choice","responses":"{\"Q0\":\"I consent to participate\"}","rt":4925},{"questionScores":[2409,25,33,2380,33,2408,2407,21,2407,21],"questionIndices":[2,1,22,37,18,11,16,49,6,46],"judgmentIndices":[2,4,3,6,5,1,0],"groupNumber":2,"participantID":"kd74sbkm5u7u0b0424a6fm5d76wagaw6","responseType":0,"internal_node_id":"0.0-1.0","time_elapsed":5937,"trial_index":1,"trial_type":"call-function"},{"questionScores":[2409,25,33,2380,33,2408,2407,21,2407,21],"questionIndices":[2,1,22,37,18,11,16,49,6,46],"judgmentIndices":[2,4,3,6,5,1,0],"groupNumber":2,"participantID":"kd74sbkm5u7u0b0424a6fm5d76wagaw6","responseType":0,"internal_node_id":"0.0-2.0","time_elapsed":7892,"trial_index":2,"trial_type":"instructions","rt":1955,"view_history":"[{\"page_index\":0,\"viewing_time\":1955}]"},{"questionScores":[2409,25,33,2380,33,2408,2407,21,2407,21],"questionIndices":[2,1,22,37,18,11,16,49,6,46],"judgmentIndices":[2,4,3,6,5,1,0],"groupNumber":2,"participantID":"kd74sbkm5u7u0b0424a6fm5d76wagaw6","responseType":0,"internal_node_id":"0.0-3.0","time_elapsed":17752,"trial_index":3,"trial_type":"instructions","rt":8859,"view_history":"[{\"page_index\":0,\"viewing_time\":8859}]"},{"questionScores":[2409,25,33,2380,33,2408,2407,21,2407,21],"questionIndices":[2,1,22,37,18,11,16,49,6,46],"judgmentIndices":[2,4,3,6,5,1,0],"groupNumber":2,"participantID":"kd74sbkm5u7u0b0424a6fm5d76wagaw6","responseType":0,"internal_node_id":"0.0-4.0","time_elapsed":21658,"trial_index":4,"trial_type":"survey-multi-choice","responses":"{\"Q0\":\"7 questions\"}","rt":2903},{"questionScores":[2409,25,33,2380,33,2408,2407,21,2407,21],"questionIndices":[2,1,22,37,18,11,16,49,6,46],"judgmentIndices":[2,4,3,6,5,1,0],"groupNumber":2,"participantID":"kd74sbkm5u7u0b0424a6fm5d76wagaw6","responseType":0,"internal_node_id":"0.0-5.0-0.0","time_elapsed":53258,"trial_index":5,"trial_type":"survey-likert","responses":"{\"Q0\":\"3\",\"Q1\":\"1\",\"Q2\":\"2\",\"Q3\":\"2\",\"Q4\":\"1\",\"Q5\":\"3\",\"Q6\":\"3\"}","rt":30592},{"questionScores":[2409,25,33,2380,33,2408,2407,21,2407,21],"questionIndices":[2,1,22,37,18,11,16,49,6,46],"judgmentIndices":[2,4,3,6,5,1,0],"groupNumber":2,"participantID":"kd74sbkm5u7u0b0424a6fm5d76wagaw6","responseType":0,"internal_node_id":"0.0-5.0-1.0","time_elapsed":73710,"trial_index":6,"trial_type":"survey-likert","responses":"{\"Q0\":\"2\",\"Q1\":\"2\",\"Q2\":\"0\",\"Q3\":\"2\",\"Q4\":\"2\",\"Q5\":\"1\",\"Q6\":\"4\"}","rt":19448},{"questionScores":[2409,25,33,2380,33,2408,2407,21,2407,21],"questionIndices":[2,1,22,37,18,11,16,49,6,46],"judgmentIndices":[2,4,3,6,5,1,0],"groupNumber":2,"participantID":"kd74sbkm5u7u0b0424a6fm5d76wagaw6","responseType":0,"internal_node_id":"0.0-5.0-2.0","time_elapsed":106140,"trial_index":7,"trial_type":"survey-likert","responses":"{\"Q0\":\"1\",\"Q1\":\"2\",\"Q2\":\"1\",\"Q3\":\"2\",\"Q4\":\"4\",\"Q5\":\"2\",\"Q6\":\"3\"}","rt":31424},{"questionScores":[2409,25,33,2380,33,2408,2407,21,2407,21],"questionIndices":[2,1,22,37,18,11,16,49,6,46],"judgmentIndices":[2,4,3,6,5,1,0],"groupNumber":2,"participantID":"kd74sbkm5u7u0b0424a6fm5d76wagaw6","responseType":0,"internal_node_id":"0.0-5.0-3.0","time_elapsed":136559,"trial_index":8,"trial_type":"survey-likert","responses":"{\"Q0\":\"3\",\"Q1\":\"3\",\"Q2\":\"5\",\"Q3\":\"4\",\"Q4\":\"4\",\"Q5\":\"1\",\"Q6\":\"5\"}","rt":29416},{"questionScores":[2409,25,33,2380,33,2408,2407,21,2407,21],"questionIndices":[2,1,22,37,18,11,16,49,6,46],"judgmentIndices":[2,4,3,6,5,1,0],"groupNumber":2,"participantID":"kd74sbkm5u7u0b0424a6fm5d76wagaw6","responseType":0,"internal_node_id":"0.0-5.0-4.0","time_elapsed":156518,"trial_index":9,"trial_type":"survey-likert","responses":"{\"Q0\":\"2\",\"Q1\":\"3\",\"Q2\":\"1\",\"Q3\":\"3\",\"Q4\":\"3\",\"Q5\":\"1\",\"Q6\":\"4\"}","rt":18954},{"questionScores":[2409,25,33,2380,33,2408,2407,21,2407,21],"questionIndices":[2,1,22,37,18,11,16,49,6,46],"judgmentIndices":[2,4,3,6,5,1,0],"groupNumber":2,"participantID":"kd74sbkm5u7u0b0424a6fm5d76wagaw6","responseType":0,"internal_node_id":"0.0-5.0-5.0","time_elapsed":173069,"trial_index":10,"trial_type":"survey-likert","responses":"{\"Q0\":\"1\",\"Q1\":\"5\",\"Q2\":\"5\",\"Q3\":\"1\",\"Q4\":\"1\",\"Q5\":\"1\",\"Q6\":\"1\"}","rt":15502},{"questionScores":[2409,25,33,2380,33,2408,2407,21,2407,21],"questionIndices":[2,1,22,37,18,11,16,49,6,46],"judgmentIndices":[2,4,3,6,5,1,0],"groupNumber":2,"participantID":"kd74sbkm5u7u0b0424a6fm5d76wagaw6","responseType":0,"internal_node_id":"0.0-5.0-6.0","time_elapsed":189253,"trial_index":11,"trial_type":"survey-likert","responses":"{\"Q0\":\"2\",\"Q1\":\"5\",\"Q2\":\"4\",\"Q3\":\"3\",\"Q4\":\"5\",\"Q5\":\"1\",\"Q6\":\"5\"}","rt":15180},{"questionScores":[2409,25,33,2380,33,2408,2407,21,2407,21],"questionIndices":[2,1,22,37,18,11,16,49,6,46],"judgmentIndices":[2,4,3,6,5,1,0],"groupNumber":2,"participantID":"kd74sbkm5u7u0b0424a6fm5d76wagaw6","responseType":0,"internal_node_id":"0.0-5.0-7.0","time_elapsed":208310,"trial_index":12,"trial_type":"survey-likert","responses":"{\"Q0\":\"3\",\"Q1\":\"2\",\"Q2\":\"1\",\"Q3\":\"3\",\"Q4\":\"5\",\"Q5\":\"1\",\"Q6\":\"4\"}","rt":18051},{"questionScores":[2409,25,33,2380,33,2408,2407,21,2407,21],"questionIndices":[2,1,22,37,18,11,16,49,6,46],"judgmentIndices":[2,4,3,6,5,1,0],"groupNumber":2,"participantID":"kd74sbkm5u7u0b0424a6fm5d76wagaw6","responseType":0,"internal_node_id":"0.0-5.0-8.0","time_elapsed":232358,"trial_index":13,"trial_type":"survey-likert","responses":"{\"Q0\":\"4\",\"Q1\":\"3\",\"Q2\":\"4\",\"Q3\":\"5\",\"Q4\":\"2\",\"Q5\":\"0\",\"Q6\":\"5\"}","rt":23044},{"questionScores":[2409,25,33,2380,33,2408,2407,21,2407,21],"questionIndices":[2,1,22,37,18,11,16,49,6,46],"judgmentIndices":[2,4,3,6,5,1,0],"groupNumber":2,"participantID":"kd74sbkm5u7u0b0424a6fm5d76wagaw6","responseType":0,"internal_node_id":"0.0-5.0-9.0","time_elapsed":245990,"trial_index":14,"trial_type":"survey-likert","responses":"{\"Q0\":\"5\",\"Q1\":\"3\",\"Q2\":\"1\",\"Q3\":\"3\",\"Q4\":\"4\",\"Q5\":\"1\",\"Q6\":\"4\"}","rt":12628},{"questionScores":[2409,25,33,2380,33,2408,2407,21,2407,21],"questionIndices":[2,1,22,37,18,11,16,49,6,46],"judgmentIndices":[2,4,3,6,5,1,0],"groupNumber":2,"participantID":"kd74sbkm5u7u0b0424a6fm5d76wagaw6","responseType":0,"internal_node_id":"0.0-6.0","time_elapsed":248708,"trial_index":15,"trial_type":"instructions","rt":1718,"view_history":"[{\"page_index\":0,\"viewing_time\":1717}]"},{"questionScores":[2409,25,33,2380,33,2408,2407,21,2407,21],"questionIndices":[2,1,22,37,18,11,16,49,6,46],"judgmentIndices":[2,4,3,6,5,1,0],"groupNumber":2,"participantID":"kd74sbkm5u7u0b0424a6fm5d76wagaw6","responseType":0,"internal_node_id":"0.0-7.0","time_elapsed":256580,"trial_index":16,"trial_type":"survey-multi-choice","responses":"{\"Q0\":\"5 questions\"}","rt":6866},{"questionScores":[2409,25,33,2380,33,2408,2407,21,2407,21],"questionIndices":[2,1,22,37,18,11,16,49,6,46],"judgmentIndices":[2,4,3,6,5,1,0],"groupNumber":2,"participantID":"kd74sbkm5u7u0b0424a6fm5d76wagaw6","responseType":0,"internal_node_id":"0.0-8.0","time_elapsed":276190,"trial_index":17,"trial_type":"survey-multi-choose","responses":"{\"Q0\":\"Reveal Answer\",\"Q1\":\"Reveal Answer\",\"Q2\":\"Reveal Answer\",\"Q3\":\"Reveal Answer\",\"Q8\":\"Reveal Answer\"}","rt":18602},{"questionScores":[2409,25,33,2380,33,2408,2407,21,2407,21],"questionIndices":[2,1,22,37,18,11,16,49,6,46],"judgmentIndices":[2,4,3,6,5,1,0],"groupNumber":2,"participantID":"kd74sbkm5u7u0b0424a6fm5d76wagaw6","responseType":0,"internal_node_id":"0.0-9.0","time_elapsed":314328,"trial_index":18,"trial_type":"instructions","rt":37130,"view_history":"[{\"page_index\":0,\"viewing_time\":37130}]"}],"__v":0}
{"_id":{"$oid":"5ad77f74e704f400046f95ba"},"data":{"responseType":1,"participantID":"jjq3yrzq5gdg1av81h1m7dok8k11aah1","groupNumber":0},"__v":0}
{"_id":{"$oid":"5ad77f7ee704f400046f95bb"},"data":{"responseType":1,"participantID":"4w080eq4gpz6q7lb9potu5hc0y5xdghe","groupNumber":1},"__v":0}
{"_id":{"$oid":"5ad77f7fe704f400046f95bc"},"data":[{"questionScores":[14,26,31,2403,2404,2408,27,-3,2380,2418],"questionIndices":[11,37,27,16,18,2,42,49,46,17],"judgmentIndices":[4,0,1,2,6,3],"groupNumber":0,"participantID":"p1nehat5h8la1qhyxhmdf83upctpjl0q","responseType":0,"internal_node_id":"0.0-0.0","time_elapsed":4014,"trial_index":0,"trial_type":"survey-multi-choice","responses":"{\"Q0\":\"I consent to participate\"}","rt":4002},{"questionScores":[14,26,31,2403,2404,2408,27,-3,2380,2418],"questionIndices":[11,37,27,16,18,2,42,49,46,17],"judgmentIndices":[4,0,1,2,6,3],"groupNumber":0,"participantID":"p1nehat5h8la1qhyxhmdf83upctpjl0q","responseType":0,"internal_node_id":"0.0-1.0","time_elapsed":5018,"trial_index":1,"trial_type":"call-function"},{"questionScores":[14,26,31,2403,2404,2408,27,-3,2380,2418],"questionIndices":[11,37,27,16,18,2,42,49,46,17],"judgmentIndices":[4,0,1,2,6,3],"groupNumber":0,"participantID":"p1nehat5h8la1qhyxhmdf83upctpjl0q","responseType":0,"internal_node_id":"0.0-2.0","time_elapsed":11868,"trial_index":2,"trial_type":"instructions","rt":6850,"view_history":"[{\"page_index\":0,\"viewing_time\":6850}]"},{"questionScores":[14,26,31,2403,2404,2408,27,-3,2380,2418],"questionIndices":[11,37,27,16,18,2,42,49,46,17],"judgmentIndices":[4,0,1,2,6,3],"groupNumber":0,"participantID":"p1nehat5h8la1qhyxhmdf83upctpjl0q","responseType":0,"internal_node_id":"0.0-3.0","time_elapsed":17827,"trial_index":3,"trial_type":"instructions","rt":4958,"view_history":"[{\"page_index\":0,\"viewing_time\":4958}]"},{"questionScores":[14,26,31,2403,2404,2408,27,-3,2380,2418],"questionIndices":[11,37,27,16,18,2,42,49,46,17],"judgmentIndices":[4,0,1,2,6,3],"groupNumber":0,"participantID":"p1nehat5h8la1qhyxhmdf83upctpjl0q","responseType":0,"internal_node_id":"0.0-4.0","time_elapsed":21580,"trial_index":4,"trial_type":"survey-multi-choice","responses":"{\"Q0\":\"10 questions\"}","rt":2745},{"questionScores":[14,26,31,2403,2404,2408,27,-3,2380,2418],"questionIndices":[11,37,27,16,18,2,42,49,46,17],"judgmentIndices":[4,0,1,2,6,3],"groupNumber":0,"participantID":"p1nehat5h8la1qhyxhmdf83upctpjl0q","responseType":0,"internal_node_id":"0.0-5.0-0.0","time_elapsed":57670,"trial_index":5,"trial_type":"survey-likert","responses":"{\"Q0\":\"5\",\"Q1\":\"3\",\"Q2\":\"5\",\"Q3\":\"4\",\"Q4\":\"1\",\"Q5\":\"1\"}","rt":35081},{"questionScores":[14,26,31,2403,2404,2408,27,-3,2380,2418],"questionIndices":[11,37,27,16,18,2,42,49,46,17],"judgmentIndices":[4,0,1,2,6,3],"groupNumber":0,"participantID":"p1nehat5h8la1qhyxhmdf83upctpjl0q","responseType":0,"internal_node_id":"0.0-5.0-1.0","time_elapsed":92949,"trial_index":6,"trial_type":"survey-likert","responses":"{\"Q0\":\"4\",\"Q1\":\"5\",\"Q2\":\"3\",\"Q3\":\"3\",\"Q4\":\"3\",\"Q5\":\"3\"}","rt":34270},{"questionScores":[14,26,31,2403,2404,2408,27,-3,2380,2418],"questionIndices":[11,37,27,16,18,2,42,49,46,17],"judgmentIndices":[4,0,1,2,6,3],"groupNumber":0,"participantID":"p1nehat5h8la1qhyxhmdf83upctpjl0q","responseType":0,"internal_node_id":"0.0-5.0-2.0","time_elapsed":117637,"trial_index":7,"trial_type":"survey-likert","responses":"{\"Q0\":\"4\",\"Q1\":\"5\",\"Q2\":\"5\",\"Q3\":\"4\",\"Q4\":\"3\",\"Q5\":\"4\"}","rt":23681},{"questionScores":[14,26,31,2403,2404,2408,27,-3,2380,2418],"questionIndices":[11,37,27,16,18,2,42,49,46,17],"judgmentIndices":[4,0,1,2,6,3],"groupNumber":0,"participantID":"p1nehat5h8la1qhyxhmdf83upctpjl0q","responseType":0,"internal_node_id":"0.0-5.0-3.0","time_elapsed":139669,"trial_index":8,"trial_type":"survey-likert","responses":"{\"Q0\":\"4\",\"Q1\":\"4\",\"Q2\":\"5\",\"Q3\":\"1\",\"Q4\":\"1\",\"Q5\":\"1\"}","rt":21024},{"questionScores":[14,26,31,2403,2404,2408,27,-3,2380,2418],"questionIndices":[11,37,27,16,18,2,42,49,46,17],"judgmentIndices":[4,0,1,2,6,3],"groupNumber":0,"participantID":"p1nehat5h8la1qhyxhmdf83upctpjl0q","responseType":0,"internal_node_id":"0.0-5.0-4.0","time_elapsed":170364,"trial_index":9,"trial_type":"survey-likert","responses":"{\"Q0\":\"4\",\"Q1\":\"4\",\"Q2\":\"5\",\"Q3\":\"3\",\"Q4\":\"2\",\"Q5\":\"1\"}","rt":29688},{"questionScores":[14,26,31,2403,2404,2408,27,-3,2380,2418],"questionIndices":[11,37,27,16,18,2,42,49,46,17],"judgmentIndices":[4,0,1,2,6,3],"groupNumber":0,"participantID":"p1nehat5h8la1qhyxhmdf83upctpjl0q","responseType":0,"internal_node_id":"0.0-5.0-5.0","time_elapsed":197684,"trial_index":10,"trial_type":"survey-likert","responses":"{\"Q0\":\"4\",\"Q1\":\"4\",\"Q2\":\"6\",\"Q3\":\"4\",\"Q4\":\"3\",\"Q5\":\"3\"}","rt":26312},{"questionScores":[14,26,31,2403,2404,2408,27,-3,2380,2418],"questionIndices":[11,37,27,16,18,2,42,49,46,17],"judgmentIndices":[4,0,1,2,6,3],"groupNumber":0,"participantID":"p1nehat5h8la1qhyxhmdf83upctpjl0q","responseType":0,"internal_node_id":"0.0-5.0-6.0","time_elapsed":216158,"trial_index":11,"trial_type":"survey-likert","responses":"{\"Q0\":\"4\",\"Q1\":\"3\",\"Q2\":\"6\",\"Q3\":\"2\",\"Q4\":\"2\",\"Q5\":\"1\"}","rt":17466},{"questionScores":[14,26,31,2403,2404,2408,27,-3,2380,2418],"questionIndices":[11,37,27,16,18,2,42,49,46,17],"judgmentIndices":[4,0,1,2,6,3],"groupNumber":0,"participantID":"p1nehat5h8la1qhyxhmdf83upctpjl0q","responseType":0,"internal_node_id":"0.0-5.0-7.0","time_elapsed":250820,"trial_index":12,"trial_type":"survey-likert","responses":"{\"Q0\":\"3\",\"Q1\":\"4\",\"Q2\":\"4\",\"Q3\":\"4\",\"Q4\":\"3\",\"Q5\":\"2\"}","rt":33653},{"questionScores":[14,26,31,2403,2404,2408,27,-3,2380,2418],"questionIndices":[11,37,27,16,18,2,42,49,46,17],"judgmentIndices":[4,0,1,2,6,3],"groupNumber":0,"participantID":"p1nehat5h8la1qhyxhmdf83upctpjl0q","responseType":0,"internal_node_id":"0.0-5.0-8.0","time_elapsed":272820,"trial_index":13,"trial_type":"survey-likert","responses":"{\"Q0\":\"4\",\"Q1\":\"3\",\"Q2\":\"2\",\"Q3\":\"3\",\"Q4\":\"3\",\"Q5\":\"2\"}","rt":20992},{"questionScores":[14,26,31,2403,2404,2408,27,-3,2380,2418],"questionIndices":[11,37,27,16,18,2,42,49,46,17],"judgmentIndices":[4,0,1,2,6,3],"groupNumber":0,"participantID":"p1nehat5h8la1qhyxhmdf83upctpjl0q","responseType":0,"internal_node_id":"0.0-5.0-9.0","time_elapsed":291108,"trial_index":14,"trial_type":"survey-likert","responses":"{\"Q0\":\"4\",\"Q1\":\"3\",\"Q2\":\"5\",\"Q3\":\"3\",\"Q4\":\"3\",\"Q5\":\"2\"}","rt":17281},{"questionScores":[14,26,31,2403,2404,2408,27,-3,2380,2418],"questionIndices":[11,37,27,16,18,2,42,49,46,17],"judgmentIndices":[4,0,1,2,6,3],"groupNumber":0,"participantID":"p1nehat5h8la1qhyxhmdf83upctpjl0q","responseType":0,"internal_node_id":"0.0-6.0","time_elapsed":295227,"trial_index":15,"trial_type":"instructions","rt":3117,"view_history":"[{\"page_index\":0,\"viewing_time\":3116}]"},{"questionScores":[14,26,31,2403,2404,2408,27,-3,2380,2418],"questionIndices":[11,37,27,16,18,2,42,49,46,17],"judgmentIndices":[4,0,1,2,6,3],"groupNumber":0,"participantID":"p1nehat5h8la1qhyxhmdf83upctpjl0q","responseType":0,"internal_node_id":"0.0-7.0","time_elapsed":304882,"trial_index":16,"trial_type":"survey-multi-choice","responses":"{\"Q0\":\"3 questions\"}","rt":8648},{"questionScores":[14,26,31,2403,2404,2408,27,-3,2380,2418],"questionIndices":[11,37,27,16,18,2,42,49,46,17],"judgmentIndices":[4,0,1,2,6,3],"groupNumber":0,"participantID":"p1nehat5h8la1qhyxhmdf83upctpjl0q","responseType":0,"internal_node_id":"0.0-8.0","time_elapsed":333981,"trial_index":17,"trial_type":"survey-multi-choose","responses":"{\"Q0\":\"Reveal Answer\",\"Q1\":\"Reveal Answer\",\"Q3\":\"Reveal Answer\",\"Q5\":\"Reveal Answer\",\"Q7\":\"Reveal Answer\"}","rt":28080},{"questionScores":[14,26,31,2403,2404,2408,27,-3,2380,2418],"questionIndices":[11,37,27,16,18,2,42,49,46,17],"judgmentIndices":[4,0,1,2,6,3],"groupNumber":0,"participantID":"p1nehat5h8la1qhyxhmdf83upctpjl0q","responseType":0,"internal_node_id":"0.0-9.0","time_elapsed":364250,"trial_index":18,"trial_type":"instructions","rt":29261,"view_history":"[{\"page_index\":0,\"viewing_time\":29261}]"}],"__v":0}
{"_id":{"$oid":"5ad77f82e704f400046f95bd"},"data":[{"questionScores":[7,2402,6,23,17,2417,2408,24,2392,2413],"questionIndices":[18,36,20,11,24,42,17,21,33,29],"judgmentIndices":[3,6,4,0,1,2],"groupNumber":0,"participantID":"lw09jrv14phz7llpo1z65rwgsjetb5e3","responseType":0,"internal_node_id":"0.0-0.0","time_elapsed":8004,"trial_index":0,"trial_type":"survey-multi-choice","responses":"{\"Q0\":\"I consent to participate\"}","rt":7927},{"questionScores":[7,2402,6,23,17,2417,2408,24,2392,2413],"questionIndices":[18,36,20,11,24,42,17,21,33,29],"judgmentIndices":[3,6,4,0,1,2],"groupNumber":0,"participantID":"lw09jrv14phz7llpo1z65rwgsjetb5e3","responseType":0,"internal_node_id":"0.0-1.0","time_elapsed":9010,"trial_index":1,"trial_type":"call-function"},{"questionScores":[7,2402,6,23,17,2417,2408,24,2392,2413],"questionIndices":[18,36,20,11,24,42,17,21,33,29],"judgmentIndices":[3,6,4,0,1,2],"groupNumber":0,"participantID":"lw09jrv14phz7llpo1z65rwgsjetb5e3","responseType":0,"internal_node_id":"0.0-2.0","time_elapsed":10618,"trial_index":2,"trial_type":"instructions","rt":1607,"view_history":"[{\"page_index\":0,\"viewing_time\":1605}]"},{"questionScores":[7,2402,6,23,17,2417,2408,24,2392,2413],"questionIndices":[18,36,20,11,24,42,17,21,33,29],"judgmentIndices":[3,6,4,0,1,2],"groupNumber":0,"participantID":"lw09jrv14phz7llpo1z65rwgsjetb5e3","responseType":0,"internal_node_id":"0.0-3.0","time_elapsed":14795,"trial_index":3,"trial_type":"instructions","rt":3177,"view_history":"[{\"page_index\":0,\"viewing_time\":3176}]"},{"questionScores":[7,2402,6,23,17,2417,2408,24,2392,2413],"questionIndices":[18,36,20,11,24,42,17,21,33,29],"judgmentIndices":[3,6,4,0,1,2],"groupNumber":0,"participantID":"lw09jrv14phz7llpo1z65rwgsjetb5e3","responseType":0,"internal_node_id":"0.0-4.0","time_elapsed":17868,"trial_index":4,"trial_type":"survey-multi-choice","responses":"{\"Q0\":\"10 questions\"}","rt":2067},{"questionScores":[7,2402,6,23,17,2417,2408,24,2392,2413],"questionIndices":[18,36,20,11,24,42,17,21,33,29],"judgmentIndices":[3,6,4,0,1,2],"groupNumber":0,"participantID":"lw09jrv14phz7llpo1z65rwgsjetb5e3","responseType":0,"internal_node_id":"0.0-5.0-0.0","time_elapsed":38496,"trial_index":5,"trial_type":"survey-likert","responses":"{\"Q0\":\"0\",\"Q1\":\"0\",\"Q2\":\"3\",\"Q3\":\"0\",\"Q4\":\"0\",\"Q5\":\"0\"}","rt":19615},{"questionScores":[7,2402,6,23,17,2417,2408,24,2392,2413],"questionIndices":[18,36,20,11,24,42,17,21,33,29],"judgmentIndices":[3,6,4,0,1,2],"groupNumber":0,"participantID":"lw09jrv14phz7llpo1z65rwgsjetb5e3","responseType":0,"internal_node_id":"0.0-5.0-1.0","time_elapsed":59596,"trial_index":6,"trial_type":"survey-likert","responses":"{\"Q0\":\"0\",\"Q1\":\"0\",\"Q2\":\"3\",\"Q3\":\"0\",\"Q4\":\"0\",\"Q5\":\"0\"}","rt":20090},{"questionScores":[7,2402,6,23,17,2417,2408,24,2392,2413],"questionIndices":[18,36,20,11,24,42,17,21,33,29],"judgmentIndices":[3,6,4,0,1,2],"groupNumber":0,"participantID":"lw09jrv14phz7llpo1z65rwgsjetb5e3","responseType":0,"internal_node_id":"0.0-5.0-2.0","time_elapsed":84593,"trial_index":7,"trial_type":"survey-likert","responses":"{\"Q0\":\"0\",\"Q1\":\"0\",\"Q2\":\"2\",\"Q3\":\"2\",\"Q4\":\"0\",\"Q5\":\"0\"}","rt":23988},{"questionScores":[7,2402,6,23,17,2417,2408,24,2392,2413],"questionIndices":[18,36,20,11,24,42,17,21,33,29],"judgmentIndices":[3,6,4,0,1,2],"groupNumber":0,"participantID":"lw09jrv14phz7llpo1z65rwgsjetb5e3","responseType":0,"internal_node_id":"0.0-5.0-3.0","time_elapsed":97404,"trial_index":8,"trial_type":"survey-likert","responses":"{\"Q0\":\"0\",\"Q1\":\"0\",\"Q2\":\"2\",\"Q3\":\"4\",\"Q4\":\"0\",\"Q5\":\"0\"}","rt":11800},{"questionScores":[7,2402,6,23,17,2417,2408,24,2392,2413],"questionIndices":[18,36,20,11,24,42,17,21,33,29],"judgmentIndices":[3,6,4,0,1,2],"groupNumber":0,"participantID":"lw09jrv14phz7llpo1z65rwgsjetb5e3","responseType":0,"internal_node_id":"0.0-5.0-4.0","time_elapsed":117367,"trial_index":9,"trial_type":"survey-likert","responses":"{\"Q0\":\"0\",\"Q1\":\"0\",\"Q2\":\"2\",\"Q3\":\"0\",\"Q4\":\"0\",\"Q5\":\"0\"}","rt":18954},{"questionScores":[7,2402,6,23,17,2417,2408,24,2392,2413],"questionIndices":[18,36,20,11,24,42,17,21,33,29],"judgmentIndices":[3,6,4,0,1,2],"groupNumber":0,"participantID":"lw09jrv14phz7llpo1z65rwgsjetb5e3","responseType":0,"internal_node_id":"0.0-5.0-5.0","time_elapsed":132587,"trial_index":10,"trial_type":"survey-likert","responses":"{\"Q0\":\"0\",\"Q1\":\"0\",\"Q2\":\"1\",\"Q3\":\"0\",\"Q4\":\"0\",\"Q5\":\"0\"}","rt":14209},{"questionScores":[7,2402,6,23,17,2417,2408,24,2392,2413],"questionIndices":[18,36,20,11,24,42,17,21,33,29],"judgmentIndices":[3,6,4,0,1,2],"groupNumber":0,"participantID":"lw09jrv14phz7llpo1z65rwgsjetb5e3","responseType":0,"internal_node_id":"0.0-5.0-6.0","time_elapsed":146101,"trial_index":11,"trial_type":"survey-likert","responses":"{\"Q0\":\"0\",\"Q1\":\"0\",\"Q2\":\"3\",\"Q3\":\"3\",\"Q4\":\"0\",\"Q5\":\"0\"}","rt":12506},{"questionScores":[7,2402,6,23,17,2417,2408,24,2392,2413],"questionIndices":[18,36,20,11,24,42,17,21,33,29],"judgmentIndices":[3,6,4,0,1,2],"groupNumber":0,"participantID":"lw09jrv14phz7llpo1z65rwgsjetb5e3","responseType":0,"internal_node_id":"0.0-5.0-7.0","time_elapsed":157217,"trial_index":12,"trial_type":"survey-likert","responses":"{\"Q0\":\"0\",\"Q1\":\"0\",\"Q2\":\"3\",\"Q3\":\"5\",\"Q4\":\"0\",\"Q5\":\"0\"}","rt":10105},{"questionScores":[7,2402,6,23,17,2417,2408,24,2392,2413],"questionIndices":[18,36,20,11,24,42,17,21,33,29],"judgmentIndices":[3,6,4,0,1,2],"groupNumber":0,"participantID":"lw09jrv14phz7llpo1z65rwgsjetb5e3","responseType":0,"internal_node_id":"0.0-5.0-8.0","time_elapsed":173480,"trial_index":13,"trial_type":"survey-likert","responses":"{\"Q0\":\"0\",\"Q1\":\"0\",\"Q2\":\"1\",\"Q3\":\"6\",\"Q4\":\"0\",\"Q5\":\"0\"}","rt":15252},{"questionScores":[7,2402,6,23,17,2417,2408,24,2392,2413],"questionIndices":[18,36,20,11,24,42,17,21,33,29],"judgmentIndices":[3,6,4,0,1,2],"groupNumber":0,"participantID":"lw09jrv14phz7llpo1z65rwgsjetb5e3","responseType":0,"internal_node_id":"0.0-5.0-9.0","time_elapsed":188194,"trial_index":14,"trial_type":"survey-likert","responses":"{\"Q0\":\"0\",\"Q1\":\"0\",\"Q2\":\"3\",\"Q3\":\"3\",\"Q4\":\"0\",\"Q5\":\"0\"}","rt":13705},{"questionScores":[7,2402,6,23,17,2417,2408,24,2392,2413],"questionIndices":[18,36,20,11,24,42,17,21,33,29],"judgmentIndices":[3,6,4,0,1,2],"groupNumber":0,"participantID":"lw09jrv14phz7llpo1z65rwgsjetb5e3","responseType":0,"internal_node_id":"0.0-6.0","time_elapsed":195532,"trial_index":15,"trial_type":"instructions","rt":6339,"view_history":"[{\"page_index\":0,\"viewing_time\":6338}]"},{"questionScores":[7,2402,6,23,17,2417,2408,24,2392,2413],"questionIndices":[18,36,20,11,24,42,17,21,33,29],"judgmentIndices":[3,6,4,0,1,2],"groupNumber":0,"participantID":"lw09jrv14phz7llpo1z65rwgsjetb5e3","responseType":0,"internal_node_id":"0.0-7.0","time_elapsed":198470,"trial_index":16,"trial_type":"survey-multi-choice","responses":"{\"Q0\":\"5 questions\"}","rt":1931},{"questionScores":[7,2402,6,23,17,2417,2408,24,2392,2413],"questionIndices":[18,36,20,11,24,42,17,21,33,29],"judgmentIndices":[3,6,4,0,1,2],"groupNumber":0,"participantID":"lw09jrv14phz7llpo1z65rwgsjetb5e3","responseType":0,"internal_node_id":"0.0-8.0","time_elapsed":225539,"trial_index":17,"trial_type":"survey-multi-choose","responses":"{\"Q0\":\"Keep Hidden\",\"Q1\":\"Keep Hidden\",\"Q2\":\"Reveal Answer\",\"Q3\":\"Reveal Answer\",\"Q4\":\"Keep Hidden\",\"Q5\":\"Keep Hidden\",\"Q6\":\"Keep Hidden\",\"Q7\":\"Reveal Answer\",\"Q8\":\"Reveal Answer\",\"Q9\":\"Reveal Answer\"}","rt":26047},{"questionScores":[7,2402,6,23,17,2417,2408,24,2392,2413],"questionIndices":[18,36,20,11,24,42,17,21,33,29],"judgmentIndices":[3,6,4,0,1,2],"groupNumber":0,"participantID":"lw09jrv14phz7llpo1z65rwgsjetb5e3","responseType":0,"internal_node_id":"0.0-9.0","time_elapsed":305915,"trial_index":18,"trial_type":"instructions","rt":79366,"view_history":"[{\"page_index\":0,\"viewing_time\":79366}]"}],"__v":0}
{"_id":{"$oid":"5ad77f83e704f400046f95be"},"data":{"responseType":1,"participantID":"8dsfnse8m4f1u1escklc9rskz5kans8v","groupNumber":1},"__v":0}
{"_id":{"$oid":"5ad77fb8e704f400046f95bf"},"data":[{"questionScores":[2407,2398,22,2401,28,32,18,28,2423,2393],"questionIndices":[4,8,22,3,1,14,43,20,15,7],"judgmentIndices":[6,2,0,3,1,4],"groupNumber":1,"participantID":"c0us1u5xkrd19038tj58opf57cjfuqpy","responseType":0,"internal_node_id":"0.0-0.0","time_elapsed":33023,"trial_index":0,"trial_type":"survey-multi-choice","responses":"{\"Q0\":\"I consent to participate\"}","rt":32992},{"questionScores":[2407,2398,22,2401,28,32,18,28,2423,2393],"questionIndices":[4,8,22,3,1,14,43,20,15,7],"judgmentIndices":[6,2,0,3,1,4],"groupNumber":1,"participantID":"c0us1u5xkrd19038tj58opf57cjfuqpy","responseType":0,"internal_node_id":"0.0-1.0","time_elapsed":34026,"trial_index":1,"trial_type":"call-function"},{"questionScores":[2407,2398,22,2401,28,32,18,28,2423,2393],"questionIndices":[4,8,22,3,1,14,43,20,15,7],"judgmentIndices":[6,2,0,3,1,4],"groupNumber":1,"participantID":"c0us1u5xkrd19038tj58opf57cjfuqpy","responseType":0,"internal_node_id":"0.0-2.0","time_elapsed":37253,"trial_index":2,"trial_type":"instructions","rt":3225,"view_history":"[{\"page_index\":0,\"viewing_time\":3224}]"},{"questionScores":[2407,2398,22,2401,28,32,18,28,2423,2393],"questionIndices":[4,8,22,3,1,14,43,20,15,7],"judgmentIndices":[6,2,0,3,1,4],"groupNumber":1,"participantID":"c0us1u5xkrd19038tj58opf57cjfuqpy","responseType":0,"internal_node_id":"0.0-3.0","time_elapsed":42529,"trial_index":3,"trial_type":"instructions","rt":4277,"view_history":"[{\"page_index\":0,\"viewing_time\":4276}]"},{"questionScores":[2407,2398,22,2401,28,32,18,28,2423,2393],"questionIndices":[4,8,22,3,1,14,43,20,15,7],"judgmentIndices":[6,2,0,3,1,4],"groupNumber":1,"participantID":"c0us1u5xkrd19038tj58opf57cjfuqpy","responseType":0,"internal_node_id":"0.0-4.0","time_elapsed":46686,"trial_index":4,"trial_type":"survey-multi-choice","responses":"{\"Q0\":\"10 questions\"}","rt":3153},{"questionScores":[2407,2398,22,2401,28,32,18,28,2423,2393],"questionIndices":[4,8,22,3,1,14,43,20,15,7],"judgmentIndices":[6,2,0,3,1,4],"groupNumber":1,"participantID":"c0us1u5xkrd19038tj58opf57cjfuqpy","responseType":0,"internal_node_id":"0.0-5.0-0.0","time_elapsed":74000,"trial_index":5,"trial_type":"survey-likert","responses":"{\"Q0\":\"2\",\"Q1\":\"3\",\"Q2\":\"2\",\"Q3\":\"4\",\"Q4\":\"5\",\"Q5\":\"4\"}","rt":26302},{"questionScores":[2407,2398,22,2401,28,32,18,28,2423,2393],"questionIndices":[4,8,22,3,1,14,43,20,15,7],"judgmentIndices":[6,2,0,3,1,4],"groupNumber":1,"participantID":"c0us1u5xkrd19038tj58opf57cjfuqpy","responseType":0,"internal_node_id":"0.0-5.0-1.0","time_elapsed":98941,"trial_index":6,"trial_type":"survey-likert","responses":"{\"Q0\":\"2\",\"Q1\":\"2\",\"Q2\":\"4\",\"Q3\":\"2\",\"Q4\":\"3\",\"Q5\":\"4\"}","rt":23927},{"questionScores":[2407,2398,22,2401,28,32,18,28,2423,2393],"questionIndices":[4,8,22,3,1,14,43,20,15,7],"judgmentIndices":[6,2,0,3,1,4],"groupNumber":1,"participantID":"c0us1u5xkrd19038tj58opf57cjfuqpy","responseType":0,"internal_node_id":"0.0-5.0-2.0","time_elapsed":124762,"trial_index":7,"trial_type":"survey-likert","responses":"{\"Q0\":\"3\",\"Q1\":\"3\",\"Q2\":\"5\",\"Q3\":\"4\",\"Q4\":\"2\",\"Q5\":\"4\"}","rt":24810},{"questionScores":[2407,2398,22,2401,28,32,18,28,2423,2393],"questionIndices":[4,8,22,3,1,14,43,20,15,7],"judgmentIndices":[6,2,0,3,1,4],"groupNumber":1,"participantID":"c0us1u5xkrd19038tj58opf57cjfuqpy","responseType":0,"internal_node_id":"0.0-5.0-3.0","time_elapsed":148160,"trial_index":8,"trial_type":"survey-likert","responses":"{\"Q0\":\"4\",\"Q1\":\"4\",\"Q2\":\"5\",\"Q3\":\"4\",\"Q4\":\"2\",\"Q5\":\"5\"}","rt":22391},{"questionScores":[2407,2398,22,2401,28,32,18,28,2423,2393],"questionIndices":[4,8,22,3,1,14,43,20,15,7],"judgmentIndices":[6,2,0,3,1,4],"groupNumber":1,"participantID":"c0us1u5xkrd19038tj58opf57cjfuqpy","responseType":0,"internal_node_id":"0.0-5.0-4.0","time_elapsed":184526,"trial_index":9,"trial_type":"survey-likert","responses":"{\"Q0\":\"1\",\"Q1\":\"1\",\"Q2\":\"1\",\"Q3\":\"2\",\"Q4\":\"4\",\"Q5\":\"5\"}","rt":35361},{"questionScores":[2407,2398,22,2401,28,32,18,28,2423,2393],"questionIndices":[4,8,22,3,1,14,43,20,15,7],"judgmentIndices":[6,2,0,3,1,4],"groupNumber":1,"participantID":"c0us1u5xkrd19038tj58opf57cjfuqpy","responseType":0,"internal_node_id":"0.0-5.0-5.0","time_elapsed":212127,"trial_index":10,"trial_type":"survey-likert","responses":"{\"Q0\":\"2\",\"Q1\":\"2\",\"Q2\":\"2\",\"Q3\":\"4\",\"Q4\":\"4\",\"Q5\":\"5\"}","rt":26592},{"questionScores":[2407,2398,22,2401,28,32,18,28,2423,2393],"questionIndices":[4,8,22,3,1,14,43,20,15,7],"judgmentIndices":[6,2,0,3,1,4],"groupNumber":1,"participantID":"c0us1u5xkrd19038tj58opf57cjfuqpy","responseType":0,"internal_node_id":"0.0-5.0-6.0","time_elapsed":237663,"trial_index":11,"trial_type":"survey-likert","responses":"{\"Q0\":\"5\",\"Q1\":\"5\",\"Q2\":\"5\",\"Q3\":\"3\",\"Q4\":\"2\",\"Q5\":\"6\"}","rt":24526},{"questionScores":[2407,2398,22,2401,28,32,18,28,2423,2393],"questionIndices":[4,8,22,3,1,14,43,20,15,7],"judgmentIndices":[6,2,0,3,1,4],"groupNumber":1,"participantID":"c0us1u5xkrd19038tj58opf57cjfuqpy","responseType":0,"internal_node_id":"0.0-5.0-7.0","time_elapsed":260550,"trial_index":12,"trial_type":"survey-likert","responses":"{\"Q0\":\"5\",\"Q1\":\"5\",\"Q2\":\"6\",\"Q3\":\"4\",\"Q4\":\"5\",\"Q5\":\"5\"}","rt":21882},{"questionScores":[2407,2398,22,2401,28,32,18,28,2423,2393],"questionIndices":[4,8,22,3,1,14,43,20,15,7],"judgmentIndices":[6,2,0,3,1,4],"groupNumber":1,"participantID":"c0us1u5xkrd19038tj58opf57cjfuqpy","responseType":0,"internal_node_id":"0.0-5.0-8.0","time_elapsed":291400,"trial_index":13,"trial_type":"survey-likert","responses":"{\"Q0\":\"2\",\"Q1\":\"1\",\"Q2\":\"4\",\"Q3\":\"4\",\"Q4\":\"2\",\"Q5\":\"2\"}","rt":29846},{"questionScores":[2407,2398,22,2401,28,32,18,28,2423,2393],"questionIndices":[4,8,22,3,1,14,43,20,15,7],"judgmentIndices":[6,2,0,3,1,4],"groupNumber":1,"participantID":"c0us1u5xkrd19038tj58opf57cjfuqpy","responseType":0,"internal_node_id":"0.0-5.0-9.0","time_elapsed":312097,"trial_index":14,"trial_type":"survey-likert","responses":"{\"Q0\":\"3\",\"Q1\":\"2\",\"Q2\":\"2\",\"Q3\":\"2\",\"Q4\":\"3\",\"Q5\":\"3\"}","rt":19690},{"questionScores":[2407,2398,22,2401,28,32,18,28,2423,2393],"questionIndices":[4,8,22,3,1,14,43,20,15,7],"judgmentIndices":[6,2,0,3,1,4],"groupNumber":1,"participantID":"c0us1u5xkrd19038tj58opf57cjfuqpy","responseType":0,"internal_node_id":"0.0-6.0","time_elapsed":325934,"trial_index":15,"trial_type":"instructions","rt":12837,"view_history":"[{\"page_index\":0,\"viewing_time\":12837}]"},{"questionScores":[2407,2398,22,2401,28,32,18,28,2423,2393],"questionIndices":[4,8,22,3,1,14,43,20,15,7],"judgmentIndices":[6,2,0,3,1,4],"groupNumber":1,"participantID":"c0us1u5xkrd19038tj58opf57cjfuqpy","responseType":0,"internal_node_id":"0.0-7.0","time_elapsed":329485,"trial_index":16,"trial_type":"survey-multi-choice","responses":"{\"Q0\":\"5 questions\"}","rt":2546},{"questionScores":[2407,2398,22,2401,28,32,18,28,2423,2393],"questionIndices":[4,8,22,3,1,14,43,20,15,7],"judgmentIndices":[6,2,0,3,1,4],"groupNumber":1,"participantID":"c0us1u5xkrd19038tj58opf57cjfuqpy","responseType":0,"internal_node_id":"0.0-8.0","time_elapsed":384148,"trial_index":17,"trial_type":"survey-multi-choose","responses":"{\"Q0\":\"Keep Hidden\",\"Q1\":\"Keep Hidden\",\"Q2\":\"Reveal Answer\",\"Q3\":\"Reveal Answer\",\"Q4\":\"Keep Hidden\",\"Q5\":\"Keep Hidden\",\"Q6\":\"Reveal Answer\",\"Q7\":\"Reveal Answer\",\"Q8\":\"Keep Hidden\",\"Q9\":\"Reveal Answer\"}","rt":53647},{"questionScores":[2407,2398,22,2401,28,32,18,28,2423,2393],"questionIndices":[4,8,22,3,1,14,43,20,15,7],"judgmentIndices":[6,2,0,3,1,4],"groupNumber":1,"participantID":"c0us1u5xkrd19038tj58opf57cjfuqpy","responseType":0,"internal_node_id":"0.0-9.0","time_elapsed":474279,"trial_index":18,"trial_type":"instructions","rt":89124,"view_history":"[{\"page_index\":0,\"viewing_time\":89124}]"}],"__v":0}
{"_id":{"$oid":"5ad77fc5e704f400046f95c0"},"data":{"responseType":1,"participantID":"6e0syosr8p5od2p4km108cw9mc1bmp8s","groupNumber":1},"__v":0}
