{"_id":{"$oid":"5cabc451d7177b00043d84fa"},"data":[{"participantID":"sana26r21r9md90gqj3o7fm1rm4rpw2p","judgmentIndices":[5,1,3,2,4,0],"questionScores":[24046,36,25,24059,24047,21,24032,13,24039,30],"questionIndices":[15,2,37,30,27,20,33,23,40,0],"responseType":"finish","internal_node_id":"0.0-0.0","time_elapsed":4100,"trial_index":0,"trial_type":"survey-multi-choice","responses":"{\"Q0\":\"I consent to participate\"}","rt":4085},{"participantID":"sana26r21r9md90gqj3o7fm1rm4rpw2p","judgmentIndices":[5,1,3,2,4,0],"questionScores":[24046,36,25,24059,24047,21,24032,13,24039,30],"questionIndices":[15,2,37,30,27,20,33,23,40,0],"responseType":"finish","internal_node_id":"0.0-1.0","time_elapsed":21081,"trial_index":1,"trial_type":"instructions","rt":15981,"view_history":"[{\"page_index\":0,\"viewing_time\":15980}]"},{"participantID":"sana26r21r9md90gqj3o7fm1rm4rpw2p","judgmentIndices":[5,1,3,2,4,0],"questionScores":[24046,36,25,24059,24047,21,24032,13,24039,30],"questionIndices":[15,2,37,30,27,20,33,23,40,0],"responseType":"finish","internal_node_id":"0.0-2.0-0.0","time_elapsed":43419,"trial_index":2,"trial_type":"survey-likert","responses":"{\"Q0\":\"3\",\"Q1\":\"1\",\"Q2\":\"4\",\"Q3\":\"4\",\"Q4\":\"3\",\"Q5\":\"5\"}","rt":21326},{"participantID":"sana26r21r9md90gqj3o7fm1rm4rpw2p","judgmentIndices":[5,1,3,2,4,0],"questionScores":[24046,36,25,24059,24047,21,24032,13,24039,30],"questionIndices":[15,2,37,30,27,20,33,23,40,0],"responseType":"finish","internal_node_id":"0.0-2.0-1.0","time_elapsed":65573,"trial_index":3,"trial_type":"survey-likert","responses":"{\"Q0\":\"5\",\"Q1\":\"3\",\"Q2\":\"0\",\"Q3\":\"5\",\"Q4\":\"5\",\"Q5\":\"4\"}","rt":21149},{"participantID":"sana26r21r9md90gqj3o7fm1rm4rpw2p","judgmentIndices":[5,1,3,2,4,0],"questionScores":[24046,36,25,24059,24047,21,24032,13,24039,30],"questionIndices":[15,2,37,30,27,20,33,23,40,0],"responseType":"finish","internal_node_id":"0.0-2.0-2.0","time_elapsed":79770,"trial_index":4,"trial_type":"survey-likert","responses":"{\"Q0\":\"3\",\"Q1\":\"1\",\"Q2\":\"0\",\"Q3\":\"4\",\"Q4\":\"3\",\"Q5\":\"3\"}","rt":13191},{"participantID":"sana26r21r9md90gqj3o7fm1rm4rpw2p","judgmentIndices":[5,1,3,2,4,0],"questionScores":[24046,36,25,24059,24047,21,24032,13,24039,30],"questionIndices":[15,2,37,30,27,20,33,23,40,0],"responseType":"finish","internal_node_id":"0.0-2.0-3.0","time_elapsed":102187,"trial_index":5,"trial_type":"survey-likert","responses":"{\"Q0\":\"4\",\"Q1\":\"1\",\"Q2\":\"5\",\"Q3\":\"4\",\"Q4\":\"3\",\"Q5\":\"5\"}","rt":21413},{"participantID":"sana26r21r9md90gqj3o7fm1rm4rpw2p","judgmentIndices":[5,1,3,2,4,0],"questionScores":[24046,36,25,24059,24047,21,24032,13,24039,30],"questionIndices":[15,2,37,30,27,20,33,23,40,0],"responseType":"finish","internal_node_id":"0.0-2.0-4.0","time_elapsed":120004,"trial_index":6,"trial_type":"survey-likert","responses":"{\"Q0\":\"5\",\"Q1\":\"3\",\"Q2\":\"5\",\"Q3\":\"5\",\"Q4\":\"2\",\"Q5\":\"4\"}","rt":16812},{"participantID":"sana26r21r9md90gqj3o7fm1rm4rpw2p","judgmentIndices":[5,1,3,2,4,0],"questionScores":[24046,36,25,24059,24047,21,24032,13,24039,30],"questionIndices":[15,2,37,30,27,20,33,23,40,0],"responseType":"finish","internal_node_id":"0.0-3.0","time_elapsed":142538,"trial_index":7,"trial_type":"survey-likert","responses":"{\"Q0\":\"4\",\"Q1\":\"1\",\"Q2\":\"0\",\"Q3\":\"4\",\"Q4\":\"4\",\"Q5\":\"5\",\"Q6\":\"6\"}","rt":21523},{"participantID":"sana26r21r9md90gqj3o7fm1rm4rpw2p","judgmentIndices":[5,1,3,2,4,0],"questionScores":[24046,36,25,24059,24047,21,24032,13,24039,30],"questionIndices":[15,2,37,30,27,20,33,23,40,0],"responseType":"finish","internal_node_id":"0.0-4.0-0.0","time_elapsed":166037,"trial_index":8,"trial_type":"survey-likert","responses":"{\"Q0\":\"2\",\"Q1\":\"0\",\"Q2\":\"5\",\"Q3\":\"3\",\"Q4\":\"1\",\"Q5\":\"6\"}","rt":22495},{"participantID":"sana26r21r9md90gqj3o7fm1rm4rpw2p","judgmentIndices":[5,1,3,2,4,0],"questionScores":[24046,36,25,24059,24047,21,24032,13,24039,30],"questionIndices":[15,2,37,30,27,20,33,23,40,0],"responseType":"finish","internal_node_id":"0.0-4.0-1.0","time_elapsed":182369,"trial_index":9,"trial_type":"survey-likert","responses":"{\"Q0\":\"3\",\"Q1\":\"2\",\"Q2\":\"0\",\"Q3\":\"3\",\"Q4\":\"4\",\"Q5\":\"4\"}","rt":15320},{"participantID":"sana26r21r9md90gqj3o7fm1rm4rpw2p","judgmentIndices":[5,1,3,2,4,0],"questionScores":[24046,36,25,24059,24047,21,24032,13,24039,30],"questionIndices":[15,2,37,30,27,20,33,23,40,0],"responseType":"finish","internal_node_id":"0.0-4.0-2.0","time_elapsed":205831,"trial_index":10,"trial_type":"survey-likert","responses":"{\"Q0\":\"5\",\"Q1\":\"2\",\"Q2\":\"5\",\"Q3\":\"4\",\"Q4\":\"1\",\"Q5\":\"3\"}","rt":22456},{"participantID":"sana26r21r9md90gqj3o7fm1rm4rpw2p","judgmentIndices":[5,1,3,2,4,0],"questionScores":[24046,36,25,24059,24047,21,24032,13,24039,30],"questionIndices":[15,2,37,30,27,20,33,23,40,0],"responseType":"finish","internal_node_id":"0.0-4.0-3.0","time_elapsed":217460,"trial_index":11,"trial_type":"survey-likert","responses":"{\"Q0\":\"3\",\"Q1\":\"1\",\"Q2\":\"0\",\"Q3\":\"3\",\"Q4\":\"2\",\"Q5\":\"3\"}","rt":10626}],"__v":0}
{"_id":{"$oid":"5cabc457d7177b00043d84fb"},"data":[{"participantID":"68d2brqo4tuf7kstwx0evwcuu5hqf9o2","judgmentIndices":[2,1,3,5,4,0],"questionScores":[24041,30,24044,24046,24050,8,28,39,22,24051],"questionIndices":[30,10,28,9,6,14,34,42,27,0],"responseType":"finish","internal_node_id":"0.0-0.0","time_elapsed":5353,"trial_index":0,"trial_type":"survey-multi-choice","responses":"{\"Q0\":\"I consent to participate\"}","rt":5331},{"participantID":"68d2brqo4tuf7kstwx0evwcuu5hqf9o2","judgmentIndices":[2,1,3,5,4,0],"questionScores":[24041,30,24044,24046,24050,8,28,39,22,24051],"questionIndices":[30,10,28,9,6,14,34,42,27,0],"responseType":"finish","internal_node_id":"0.0-1.0","time_elapsed":30091,"trial_index":1,"trial_type":"instructions","rt":23735,"view_history":"[{\"page_index\":0,\"viewing_time\":23734}]"},{"participantID":"68d2brqo4tuf7kstwx0evwcuu5hqf9o2","judgmentIndices":[2,1,3,5,4,0],"questionScores":[24041,30,24044,24046,24050,8,28,39,22,24051],"questionIndices":[30,10,28,9,6,14,34,42,27,0],"responseType":"finish","internal_node_id":"0.0-2.0-0.0","time_elapsed":62809,"trial_index":2,"trial_type":"survey-likert","responses":"{\"Q0\":\"4\",\"Q1\":\"4\",\"Q2\":\"3\",\"Q3\":\"3\",\"Q4\":\"2\",\"Q5\":\"3\"}","rt":31707},{"participantID":"68d2brqo4tuf7kstwx0evwcuu5hqf9o2","judgmentIndices":[2,1,3,5,4,0],"questionScores":[24041,30,24044,24046,24050,8,28,39,22,24051],"questionIndices":[30,10,28,9,6,14,34,42,27,0],"responseType":"finish","internal_node_id":"0.0-2.0-1.0","time_elapsed":77094,"trial_index":3,"trial_type":"survey-likert","responses":"{\"Q0\":\"3\",\"Q1\":\"2\",\"Q2\":\"2\",\"Q3\":\"2\",\"Q4\":\"2\",\"Q5\":\"2\"}","rt":13274},{"participantID":"68d2brqo4tuf7kstwx0evwcuu5hqf9o2","judgmentIndices":[2,1,3,5,4,0],"questionScores":[24041,30,24044,24046,24050,8,28,39,22,24051],"questionIndices":[30,10,28,9,6,14,34,42,27,0],"responseType":"finish","internal_node_id":"0.0-2.0-2.0","time_elapsed":88930,"trial_index":4,"trial_type":"survey-likert","responses":"{\"Q0\":\"2\",\"Q1\":\"2\",\"Q2\":\"2\",\"Q3\":\"2\",\"Q4\":\"2\",\"Q5\":\"2\"}","rt":10826},{"participantID":"68d2brqo4tuf7kstwx0evwcuu5hqf9o2","judgmentIndices":[2,1,3,5,4,0],"questionScores":[24041,30,24044,24046,24050,8,28,39,22,24051],"questionIndices":[30,10,28,9,6,14,34,42,27,0],"responseType":"finish","internal_node_id":"0.0-2.0-3.0","time_elapsed":103284,"trial_index":5,"trial_type":"survey-likert","responses":"{\"Q0\":\"1\",\"Q1\":\"1\",\"Q2\":\"1\",\"Q3\":\"1\",\"Q4\":\"1\",\"Q5\":\"1\"}","rt":13343},{"participantID":"68d2brqo4tuf7kstwx0evwcuu5hqf9o2","judgmentIndices":[2,1,3,5,4,0],"questionScores":[24041,30,24044,24046,24050,8,28,39,22,24051],"questionIndices":[30,10,28,9,6,14,34,42,27,0],"responseType":"finish","internal_node_id":"0.0-2.0-4.0","time_elapsed":119424,"trial_index":6,"trial_type":"survey-likert","responses":"{\"Q0\":\"4\",\"Q1\":\"3\",\"Q2\":\"3\",\"Q3\":\"3\",\"Q4\":\"3\",\"Q5\":\"3\"}","rt":15129},{"participantID":"68d2brqo4tuf7kstwx0evwcuu5hqf9o2","judgmentIndices":[2,1,3,5,4,0],"questionScores":[24041,30,24044,24046,24050,8,28,39,22,24051],"questionIndices":[30,10,28,9,6,14,34,42,27,0],"responseType":"finish","internal_node_id":"0.0-3.0","time_elapsed":139704,"trial_index":7,"trial_type":"survey-likert","responses":"{\"Q0\":\"2\",\"Q1\":\"1\",\"Q2\":\"1\",\"Q3\":\"1\",\"Q4\":\"4\",\"Q5\":\"1\",\"Q6\":\"6\"}","rt":19269},{"participantID":"68d2brqo4tuf7kstwx0evwcuu5hqf9o2","judgmentIndices":[2,1,3,5,4,0],"questionScores":[24041,30,24044,24046,24050,8,28,39,22,24051],"questionIndices":[30,10,28,9,6,14,34,42,27,0],"responseType":"finish","internal_node_id":"0.0-4.0-0.0","time_elapsed":156072,"trial_index":8,"trial_type":"survey-likert","responses":"{\"Q0\":\"2\",\"Q1\":\"2\",\"Q2\":\"3\",\"Q3\":\"2\",\"Q4\":\"2\",\"Q5\":\"1\"}","rt":15356},{"participantID":"68d2brqo4tuf7kstwx0evwcuu5hqf9o2","judgmentIndices":[2,1,3,5,4,0],"questionScores":[24041,30,24044,24046,24050,8,28,39,22,24051],"questionIndices":[30,10,28,9,6,14,34,42,27,0],"responseType":"finish","internal_node_id":"0.0-4.0-1.0","time_elapsed":175106,"trial_index":9,"trial_type":"survey-likert","responses":"{\"Q0\":\"3\",\"Q1\":\"2\",\"Q2\":\"2\",\"Q3\":\"1\",\"Q4\":\"1\",\"Q5\":\"0\"}","rt":18025},{"participantID":"68d2brqo4tuf7kstwx0evwcuu5hqf9o2","judgmentIndices":[2,1,3,5,4,0],"questionScores":[24041,30,24044,24046,24050,8,28,39,22,24051],"questionIndices":[30,10,28,9,6,14,34,42,27,0],"responseType":"finish","internal_node_id":"0.0-4.0-2.0","time_elapsed":191662,"trial_index":10,"trial_type":"survey-likert","responses":"{\"Q0\":\"4\",\"Q1\":\"3\",\"Q2\":\"2\",\"Q3\":\"2\",\"Q4\":\"2\",\"Q5\":\"1\"}","rt":15552},{"participantID":"68d2brqo4tuf7kstwx0evwcuu5hqf9o2","judgmentIndices":[2,1,3,5,4,0],"questionScores":[24041,30,24044,24046,24050,8,28,39,22,24051],"questionIndices":[30,10,28,9,6,14,34,42,27,0],"responseType":"finish","internal_node_id":"0.0-4.0-3.0","time_elapsed":204808,"trial_index":11,"trial_type":"survey-likert","responses":"{\"Q0\":\"1\",\"Q1\":\"3\",\"Q2\":\"1\",\"Q3\":\"1\",\"Q4\":\"1\",\"Q5\":\"1\"}","rt":12134}],"__v":0}
{"_id":{"$oid":"5cabc46ad7177b00043d84fc"},"data":[{"participantID":"rxt9ompoqypdk5v67wmwpseu29te3s08","judgmentIndices":[5,1,2,4,3,0],"questionScores":[14,26,24047,14,24054,30,24061,13,24054,24047],"questionIndices":[32,36,34,40,42,44,19,9,6,23],"responseType":"finish","internal_node_id":"0.0-0.0","time_elapsed":9814,"trial_index":0,"trial_type":"survey-multi-choice","responses":"{\"Q0\":\"I consent to participate\"}","rt":9805},{"participantID":"rxt9ompoqypdk5v67wmwpseu29te3s08","judgmentIndices":[5,1,2,4,3,0],"questionScores":[14,26,24047,14,24054,30,24061,13,24054,24047],"questionIndices":[32,36,34,40,42,44,19,9,6,23],"responseType":"finish","internal_node_id":"0.0-1.0","time_elapsed":18933,"trial_index":1,"trial_type":"instructions","rt":8118,"view_history":"[{\"page_index\":0,\"viewing_time\":8118}]"},{"participantID":"rxt9ompoqypdk5v67wmwpseu29te3s08","judgmentIndices":[5,1,2,4,3,0],"questionScores":[14,26,24047,14,24054,30,24061,13,24054,24047],"questionIndices":[32,36,34,40,42,44,19,9,6,23],"responseType":"finish","internal_node_id":"0.0-2.0-0.0","time_elapsed":40726,"trial_index":2,"trial_type":"survey-likert","responses":"{\"Q0\":\"3\",\"Q1\":\"2\",\"Q2\":\"5\",\"Q3\":\"3\",\"Q4\":\"2\",\"Q5\":\"6\"}","rt":20786},{"participantID":"rxt9ompoqypdk5v67wmwpseu29te3s08","judgmentIndices":[5,1,2,4,3,0],"questionScores":[14,26,24047,14,24054,30,24061,13,24054,24047],"questionIndices":[32,36,34,40,42,44,19,9,6,23],"responseType":"finish","internal_node_id":"0.0-2.0-1.0","time_elapsed":58211,"trial_index":3,"trial_type":"survey-likert","responses":"{\"Q0\":\"4\",\"Q1\":\"3\",\"Q2\":\"4\",\"Q3\":\"5\",\"Q4\":\"5\",\"Q5\":\"6\"}","rt":16477},{"participantID":"rxt9ompoqypdk5v67wmwpseu29te3s08","judgmentIndices":[5,1,2,4,3,0],"questionScores":[14,26,24047,14,24054,30,24061,13,24054,24047],"questionIndices":[32,36,34,40,42,44,19,9,6,23],"responseType":"finish","internal_node_id":"0.0-2.0-2.0","time_elapsed":77319,"trial_index":4,"trial_type":"survey-likert","responses":"{\"Q0\":\"5\",\"Q1\":\"5\",\"Q2\":\"6\",\"Q3\":\"6\",\"Q4\":\"6\",\"Q5\":\"4\"}","rt":18103},{"participantID":"rxt9ompoqypdk5v67wmwpseu29te3s08","judgmentIndices":[5,1,2,4,3,0],"questionScores":[14,26,24047,14,24054,30,24061,13,24054,24047],"questionIndices":[32,36,34,40,42,44,19,9,6,23],"responseType":"finish","internal_node_id":"0.0-2.0-3.0","time_elapsed":99564,"trial_index":5,"trial_type":"survey-likert","responses":"{\"Q0\":\"4\",\"Q1\":\"1\",\"Q2\":\"4\",\"Q3\":\"1\",\"Q4\":\"1\",\"Q5\":\"3\"}","rt":21241},{"participantID":"rxt9ompoqypdk5v67wmwpseu29te3s08","judgmentIndices":[5,1,2,4,3,0],"questionScores":[14,26,24047,14,24054,30,24061,13,24054,24047],"questionIndices":[32,36,34,40,42,44,19,9,6,23],"responseType":"finish","internal_node_id":"0.0-2.0-4.0","time_elapsed":120226,"trial_index":6,"trial_type":"survey-likert","responses":"{\"Q0\":\"1\",\"Q1\":\"1\",\"Q2\":\"4\",\"Q3\":\"6\",\"Q4\":\"6\",\"Q5\":\"4\"}","rt":19657},{"participantID":"rxt9ompoqypdk5v67wmwpseu29te3s08","judgmentIndices":[5,1,2,4,3,0],"questionScores":[14,26,24047,14,24054,30,24061,13,24054,24047],"questionIndices":[32,36,34,40,42,44,19,9,6,23],"responseType":"finish","internal_node_id":"0.0-3.0","time_elapsed":147151,"trial_index":7,"trial_type":"survey-likert","responses":"{\"Q0\":\"1\",\"Q1\":\"4\",\"Q2\":\"5\",\"Q3\":\"2\",\"Q4\":\"1\",\"Q5\":\"5\",\"Q6\":\"6\"}","rt":25920},{"participantID":"rxt9ompoqypdk5v67wmwpseu29te3s08","judgmentIndices":[5,1,2,4,3,0],"questionScores":[14,26,24047,14,24054,30,24061,13,24054,24047],"questionIndices":[32,36,34,40,42,44,19,9,6,23],"responseType":"finish","internal_node_id":"0.0-4.0-0.0","time_elapsed":191389,"trial_index":8,"trial_type":"survey-likert","responses":"{\"Q0\":\"3\",\"Q1\":\"1\",\"Q2\":\"3\",\"Q3\":\"4\",\"Q4\":\"5\",\"Q5\":\"6\"}","rt":43233},{"participantID":"rxt9ompoqypdk5v67wmwpseu29te3s08","judgmentIndices":[5,1,2,4,3,0],"questionScores":[14,26,24047,14,24054,30,24061,13,24054,24047],"questionIndices":[32,36,34,40,42,44,19,9,6,23],"responseType":"finish","internal_node_id":"0.0-4.0-1.0","time_elapsed":208203,"trial_index":9,"trial_type":"survey-likert","responses":"{\"Q0\":\"1\",\"Q1\":\"1\",\"Q2\":\"1\",\"Q3\":\"0\",\"Q4\":\"0\",\"Q5\":\"1\"}","rt":15806},{"participantID":"rxt9ompoqypdk5v67wmwpseu29te3s08","judgmentIndices":[5,1,2,4,3,0],"questionScores":[14,26,24047,14,24054,30,24061,13,24054,24047],"questionIndices":[32,36,34,40,42,44,19,9,6,23],"responseType":"finish","internal_node_id":"0.0-4.0-2.0","time_elapsed":227044,"trial_index":10,"trial_type":"survey-likert","responses":"{\"Q0\":\"5\",\"Q1\":\"0\",\"Q2\":\"4\",\"Q3\":\"5\",\"Q4\":\"6\",\"Q5\":\"6\"}","rt":17833},{"participantID":"rxt9ompoqypdk5v67wmwpseu29te3s08","judgmentIndices":[5,1,2,4,3,0],"questionScores":[14,26,24047,14,24054,30,24061,13,24054,24047],"questionIndices":[32,36,34,40,42,44,19,9,6,23],"responseType":"finish","internal_node_id":"0.0-4.0-3.0","time_elapsed":259144,"trial_index":11,"trial_type":"survey-likert","responses":"{\"Q0\":\"1\",\"Q1\":\"0\",\"Q2\":\"1\",\"Q3\":\"6\",\"Q4\":\"6\",\"Q5\":\"2\"}","rt":31095}],"__v":0}
{"_id":{"$oid":"5cabc4e2d7177b00043d84fd"},"data":[{"participantID":"e4zr4k2wtn02qngsjapkp4w911s169qu","judgmentIndices":[2,5,1,4,0,3],"questionScores":[24060,15,20,23,24054,22,24051,24026,30,24051],"questionIndices":[36,45,40,47,43,6,29,44,7,21],"responseType":"finish","internal_node_id":"0.0-0.0","time_elapsed":3567,"trial_index":0,"trial_type":"survey-multi-choice","responses":"{\"Q0\":\"I consent to participate\"}","rt":3545},{"participantID":"e4zr4k2wtn02qngsjapkp4w911s169qu","judgmentIndices":[2,5,1,4,0,3],"questionScores":[24060,15,20,23,24054,22,24051,24026,30,24051],"questionIndices":[36,45,40,47,43,6,29,44,7,21],"responseType":"finish","internal_node_id":"0.0-1.0","time_elapsed":5457,"trial_index":1,"trial_type":"instructions","rt":888,"view_history":"[{\"page_index\":0,\"viewing_time\":887}]"},{"participantID":"e4zr4k2wtn02qngsjapkp4w911s169qu","judgmentIndices":[2,5,1,4,0,3],"questionScores":[24060,15,20,23,24054,22,24051,24026,30,24051],"questionIndices":[36,45,40,47,43,6,29,44,7,21],"responseType":"finish","internal_node_id":"0.0-2.0-0.0","time_elapsed":29707,"trial_index":2,"trial_type":"survey-likert","responses":"{\"Q0\":\"4\",\"Q1\":\"6\",\"Q2\":\"0\",\"Q3\":\"6\",\"Q4\":\"6\",\"Q5\":\"6\"}","rt":23239},{"participantID":"e4zr4k2wtn02qngsjapkp4w911s169qu","judgmentIndices":[2,5,1,4,0,3],"questionScores":[24060,15,20,23,24054,22,24051,24026,30,24051],"questionIndices":[36,45,40,47,43,6,29,44,7,21],"responseType":"finish","internal_node_id":"0.0-2.0-1.0","time_elapsed":55670,"trial_index":3,"trial_type":"survey-likert","responses":"{\"Q0\":\"4\",\"Q1\":\"0\",\"Q2\":\"0\",\"Q3\":\"6\",\"Q4\":\"6\",\"Q5\":\"0\"}","rt":24954},{"participantID":"e4zr4k2wtn02qngsjapkp4w911s169qu","judgmentIndices":[2,5,1,4,0,3],"questionScores":[24060,15,20,23,24054,22,24051,24026,30,24051],"questionIndices":[36,45,40,47,43,6,29,44,7,21],"responseType":"finish","internal_node_id":"0.0-2.0-2.0","time_elapsed":78315,"trial_index":4,"trial_type":"survey-likert","responses":"{\"Q0\":\"0\",\"Q1\":\"6\",\"Q2\":\"4\",\"Q3\":\"2\",\"Q4\":\"6\",\"Q5\":\"5\"}","rt":21638},{"participantID":"e4zr4k2wtn02qngsjapkp4w911s169qu","judgmentIndices":[2,5,1,4,0,3],"questionScores":[24060,15,20,23,24054,22,24051,24026,30,24051],"questionIndices":[36,45,40,47,43,6,29,44,7,21],"responseType":"finish","internal_node_id":"0.0-2.0-3.0","time_elapsed":94311,"trial_index":5,"trial_type":"survey-likert","responses":"{\"Q0\":\"6\",\"Q1\":\"6\",\"Q2\":\"0\",\"Q3\":\"6\",\"Q4\":\"6\",\"Q5\":\"3\"}","rt":14988},{"participantID":"e4zr4k2wtn02qngsjapkp4w911s169qu","judgmentIndices":[2,5,1,4,0,3],"questionScores":[24060,15,20,23,24054,22,24051,24026,30,24051],"questionIndices":[36,45,40,47,43,6,29,44,7,21],"responseType":"finish","internal_node_id":"0.0-2.0-4.0","time_elapsed":112061,"trial_index":6,"trial_type":"survey-likert","responses":"{\"Q0\":\"0\",\"Q1\":\"4\",\"Q2\":\"0\",\"Q3\":\"3\",\"Q4\":\"0\",\"Q5\":\"4\"}","rt":16743},{"participantID":"e4zr4k2wtn02qngsjapkp4w911s169qu","judgmentIndices":[2,5,1,4,0,3],"questionScores":[24060,15,20,23,24054,22,24051,24026,30,24051],"questionIndices":[36,45,40,47,43,6,29,44,7,21],"responseType":"finish","internal_node_id":"0.0-3.0","time_elapsed":137708,"trial_index":7,"trial_type":"survey-likert","responses":"{\"Q0\":\"6\",\"Q1\":\"6\",\"Q2\":\"6\",\"Q3\":\"0\",\"Q4\":\"0\",\"Q5\":\"4\",\"Q6\":\"5\"}","rt":24638},{"participantID":"e4zr4k2wtn02qngsjapkp4w911s169qu","judgmentIndices":[2,5,1,4,0,3],"questionScores":[24060,15,20,23,24054,22,24051,24026,30,24051],"questionIndices":[36,45,40,47,43,6,29,44,7,21],"responseType":"finish","internal_node_id":"0.0-4.0-0.0","time_elapsed":158063,"trial_index":8,"trial_type":"survey-likert","responses":"{\"Q0\":\"4\",\"Q1\":\"0\",\"Q2\":\"0\",\"Q3\":\"5\",\"Q4\":\"3\",\"Q5\":\"3\"}","rt":19347},{"participantID":"e4zr4k2wtn02qngsjapkp4w911s169qu","judgmentIndices":[2,5,1,4,0,3],"questionScores":[24060,15,20,23,24054,22,24051,24026,30,24051],"questionIndices":[36,45,40,47,43,6,29,44,7,21],"responseType":"finish","internal_node_id":"0.0-4.0-1.0","time_elapsed":182123,"trial_index":9,"trial_type":"survey-likert","responses":"{\"Q0\":\"6\",\"Q1\":\"6\",\"Q2\":\"3\",\"Q3\":\"6\",\"Q4\":\"6\",\"Q5\":\"6\"}","rt":23045},{"participantID":"e4zr4k2wtn02qngsjapkp4w911s169qu","judgmentIndices":[2,5,1,4,0,3],"questionScores":[24060,15,20,23,24054,22,24051,24026,30,24051],"questionIndices":[36,45,40,47,43,6,29,44,7,21],"responseType":"finish","internal_node_id":"0.0-4.0-2.0","time_elapsed":197954,"trial_index":10,"trial_type":"survey-likert","responses":"{\"Q0\":\"3\",\"Q1\":\"3\",\"Q2\":\"6\",\"Q3\":\"0\",\"Q4\":\"0\",\"Q5\":\"3\"}","rt":14822},{"participantID":"e4zr4k2wtn02qngsjapkp4w911s169qu","judgmentIndices":[2,5,1,4,0,3],"questionScores":[24060,15,20,23,24054,22,24051,24026,30,24051],"questionIndices":[36,45,40,47,43,6,29,44,7,21],"responseType":"finish","internal_node_id":"0.0-4.0-3.0","time_elapsed":214378,"trial_index":11,"trial_type":"survey-likert","responses":"{\"Q0\":\"0\",\"Q1\":\"0\",\"Q2\":\"6\",\"Q3\":\"6\",\"Q4\":\"6\",\"Q5\":\"3\"}","rt":15416}],"__v":0}
{"_id":{"$oid":"5cabc4fbd7177b00043d84fe"},"data":[{"participantID":"wul66ydj8kvrksvrb3u57s0eap457scs","judgmentIndices":[3,0,5,1,4,2],"questionScores":[24,24048,10,25,24051,24042,21,15,24060,24032],"questionIndices":[41,13,1,44,46,10,7,0,47,42],"responseType":"finish","internal_node_id":"0.0-0.0","time_elapsed":4374,"trial_index":0,"trial_type":"survey-multi-choice","responses":"{\"Q0\":\"I consent to participate\"}","rt":4363},{"participantID":"wul66ydj8kvrksvrb3u57s0eap457scs","judgmentIndices":[3,0,5,1,4,2],"questionScores":[24,24048,10,25,24051,24042,21,15,24060,24032],"questionIndices":[41,13,1,44,46,10,7,0,47,42],"responseType":"finish","internal_node_id":"0.0-1.0","time_elapsed":6838,"trial_index":1,"trial_type":"instructions","rt":1462,"view_history":"[{\"page_index\":0,\"viewing_time\":1461}]"},{"participantID":"wul66ydj8kvrksvrb3u57s0eap457scs","judgmentIndices":[3,0,5,1,4,2],"questionScores":[24,24048,10,25,24051,24042,21,15,24060,24032],"questionIndices":[41,13,1,44,46,10,7,0,47,42],"responseType":"finish","internal_node_id":"0.0-2.0-0.0","time_elapsed":38466,"trial_index":2,"trial_type":"survey-likert","responses":"{\"Q0\":\"4\",\"Q1\":\"5\",\"Q2\":\"2\",\"Q3\":\"0\",\"Q4\":\"6\",\"Q5\":\"3\"}","rt":30617},{"participantID":"wul66ydj8kvrksvrb3u57s0eap457scs","judgmentIndices":[3,0,5,1,4,2],"questionScores":[24,24048,10,25,24051,24042,21,15,24060,24032],"questionIndices":[41,13,1,44,46,10,7,0,47,42],"responseType":"finish","internal_node_id":"0.0-2.0-1.0","time_elapsed":70515,"trial_index":3,"trial_type":"survey-likert","responses":"{\"Q0\":\"6\",\"Q1\":\"6\",\"Q2\":\"6\",\"Q3\":\"6\",\"Q4\":\"6\",\"Q5\":\"6\"}","rt":31040},{"participantID":"wul66ydj8kvrksvrb3u57s0eap457scs","judgmentIndices":[3,0,5,1,4,2],"questionScores":[24,24048,10,25,24051,24042,21,15,24060,24032],"questionIndices":[41,13,1,44,46,10,7,0,47,42],"responseType":"finish","internal_node_id":"0.0-2.0-2.0","time_elapsed":94717,"trial_index":4,"trial_type":"survey-likert","responses":"{\"Q0\":\"1\",\"Q1\":\"5\",\"Q2\":\"1\",\"Q3\":\"4\",\"Q4\":\"0\",\"Q5\":\"0\"}","rt":23193},{"participantID":"wul66ydj8kvrksvrb3u57s0eap457scs","judgmentIndices":[3,0,5,1,4,2],"questionScores":[24,24048,10,25,24051,24042,21,15,24060,24032],"questionIndices":[41,13,1,44,46,10,7,0,47,42],"responseType":"finish","internal_node_id":"0.0-2.0-3.0","time_elapsed":129428,"trial_index":5,"trial_type":"survey-likert","responses":"{\"Q0\":\"1\",\"Q1\":\"2\",\"Q2\":\"3\",\"Q3\":\"3\",\"Q4\":\"1\",\"Q5\":\"3\"}","rt":33702},{"participantID":"wul66ydj8kvrksvrb3u57s0eap457scs","judgmentIndices":[3,0,5,1,4,2],"questionScores":[24,24048,10,25,24051,24042,21,15,24060,24032],"questionIndices":[41,13,1,44,46,10,7,0,47,42],"responseType":"finish","internal_node_id":"0.0-2.0-4.0","time_elapsed":155522,"trial_index":6,"trial_type":"survey-likert","responses":"{\"Q0\":\"6\",\"Q1\":\"0\",\"Q2\":\"3\",\"Q3\":\"0\",\"Q4\":\"5\",\"Q5\":\"1\"}","rt":25086},{"participantID":"wul66ydj8kvrksvrb3u57s0eap457scs","judgmentIndices":[3,0,5,1,4,2],"questionScores":[24,24048,10,25,24051,24042,21,15,24060,24032],"questionIndices":[41,13,1,44,46,10,7,0,47,42],"responseType":"finish","internal_node_id":"0.0-3.0","time_elapsed":185135,"trial_index":7,"trial_type":"survey-likert","responses":"{\"Q0\":\"6\",\"Q1\":\"0\",\"Q2\":\"3\",\"Q3\":\"0\",\"Q4\":\"6\",\"Q5\":\"1\",\"Q6\":\"6\"}","rt":28603},{"participantID":"wul66ydj8kvrksvrb3u57s0eap457scs","judgmentIndices":[3,0,5,1,4,2],"questionScores":[24,24048,10,25,24051,24042,21,15,24060,24032],"questionIndices":[41,13,1,44,46,10,7,0,47,42],"responseType":"finish","internal_node_id":"0.0-4.0-0.0","time_elapsed":211253,"trial_index":8,"trial_type":"survey-likert","responses":"{\"Q0\":\"1\",\"Q1\":\"0\",\"Q2\":\"0\",\"Q3\":\"0\",\"Q4\":\"0\",\"Q5\":\"0\"}","rt":25110},{"participantID":"wul66ydj8kvrksvrb3u57s0eap457scs","judgmentIndices":[3,0,5,1,4,2],"questionScores":[24,24048,10,25,24051,24042,21,15,24060,24032],"questionIndices":[41,13,1,44,46,10,7,0,47,42],"responseType":"finish","internal_node_id":"0.0-4.0-1.0","time_elapsed":235883,"trial_index":9,"trial_type":"survey-likert","responses":"{\"Q0\":\"0\",\"Q1\":\"0\",\"Q2\":\"0\",\"Q3\":\"0\",\"Q4\":\"0\",\"Q5\":\"0\"}","rt":23622},{"participantID":"wul66ydj8kvrksvrb3u57s0eap457scs","judgmentIndices":[3,0,5,1,4,2],"questionScores":[24,24048,10,25,24051,24042,21,15,24060,24032],"questionIndices":[41,13,1,44,46,10,7,0,47,42],"responseType":"finish","internal_node_id":"0.0-4.0-2.0","time_elapsed":259236,"trial_index":10,"trial_type":"survey-likert","responses":"{\"Q0\":\"6\",\"Q1\":\"0\",\"Q2\":\"4\",\"Q3\":\"0\",\"Q4\":\"6\",\"Q5\":\"3\"}","rt":22344},{"participantID":"wul66ydj8kvrksvrb3u57s0eap457scs","judgmentIndices":[3,0,5,1,4,2],"questionScores":[24,24048,10,25,24051,24042,21,15,24060,24032],"questionIndices":[41,13,1,44,46,10,7,0,47,42],"responseType":"finish","internal_node_id":"0.0-4.0-3.0","time_elapsed":303520,"trial_index":11,"trial_type":"survey-likert","responses":"{\"Q0\":\"6\",\"Q1\":\"2\",\"Q2\":\"4\",\"Q3\":\"0\",\"Q4\":\"5\",\"Q5\":\"4\"}","rt":43277}],"__v":0}
{"_id":{"$oid":"5cabc509d7177b00043d84ff"},"data":[{"participantID":"3lmswywcgo03yave2grh38pyqagaxjqo","judgmentIndices":[4,1,5,0,3,2],"questionScores":[24069,26,30,15,24041,19,24055,24043,24052,22],"questionIndices":[33,20,44,24,34,12,8,15,0,39],"responseType":"finish","internal_node_id":"0.0-0.0","time_elapsed":8387,"trial_index":0,"trial_type":"survey-multi-choice","responses":"{\"Q0\":\"I consent to participate\"}","rt":8368},{"participantID":"3lmswywcgo03yave2grh38pyqagaxjqo","judgmentIndices":[4,1,5,0,3,2],"questionScores":[24069,26,30,15,24041,19,24055,24043,24052,22],"questionIndices":[33,20,44,24,34,12,8,15,0,39],"responseType":"finish","internal_node_id":"0.0-1.0","time_elapsed":29571,"trial_index":1,"trial_type":"instructions","rt":20180,"view_history":"[{\"page_index\":0,\"viewing_time\":20180}]"},{"participantID":"3lmswywcgo03yave2grh38pyqagaxjqo","judgmentIndices":[4,1,5,0,3,2],"questionScores":[24069,26,30,15,24041,19,24055,24043,24052,22],"questionIndices":[33,20,44,24,34,12,8,15,0,39],"responseType":"finish","internal_node_id":"0.0-2.0-0.0","time_elapsed":72128,"trial_index":2,"trial_type":"survey-likert","responses":"{\"Q0\":\"5\",\"Q1\":\"0\",\"Q2\":\"0\",\"Q3\":\"0\",\"Q4\":\"4\",\"Q5\":\"0\"}","rt":41532},{"participantID":"3lmswywcgo03yave2grh38pyqagaxjqo","judgmentIndices":[4,1,5,0,3,2],"questionScores":[24069,26,30,15,24041,19,24055,24043,24052,22],"questionIndices":[33,20,44,24,34,12,8,15,0,39],"responseType":"finish","internal_node_id":"0.0-2.0-1.0","time_elapsed":108660,"trial_index":3,"trial_type":"survey-likert","responses":"{\"Q0\":\"5\",\"Q1\":\"1\",\"Q2\":\"4\",\"Q3\":\"6\",\"Q4\":\"1\",\"Q5\":\"3\"}","rt":35523},{"participantID":"3lmswywcgo03yave2grh38pyqagaxjqo","judgmentIndices":[4,1,5,0,3,2],"questionScores":[24069,26,30,15,24041,19,24055,24043,24052,22],"questionIndices":[33,20,44,24,34,12,8,15,0,39],"responseType":"finish","internal_node_id":"0.0-2.0-2.0","time_elapsed":133198,"trial_index":4,"trial_type":"survey-likert","responses":"{\"Q0\":\"5\",\"Q1\":\"1\",\"Q2\":\"3\",\"Q3\":\"5\",\"Q4\":\"5\",\"Q5\":\"3\"}","rt":23514},{"participantID":"3lmswywcgo03yave2grh38pyqagaxjqo","judgmentIndices":[4,1,5,0,3,2],"questionScores":[24069,26,30,15,24041,19,24055,24043,24052,22],"questionIndices":[33,20,44,24,34,12,8,15,0,39],"responseType":"finish","internal_node_id":"0.0-2.0-3.0","time_elapsed":161384,"trial_index":5,"trial_type":"survey-likert","responses":"{\"Q0\":\"3\",\"Q1\":\"0\",\"Q2\":\"5\",\"Q3\":\"4\",\"Q4\":\"3\",\"Q5\":\"5\"}","rt":27166},{"participantID":"3lmswywcgo03yave2grh38pyqagaxjqo","judgmentIndices":[4,1,5,0,3,2],"questionScores":[24069,26,30,15,24041,19,24055,24043,24052,22],"questionIndices":[33,20,44,24,34,12,8,15,0,39],"responseType":"finish","internal_node_id":"0.0-2.0-4.0","time_elapsed":184578,"trial_index":6,"trial_type":"survey-likert","responses":"{\"Q0\":\"6\",\"Q1\":\"0\",\"Q2\":\"3\",\"Q3\":\"3\",\"Q4\":\"6\",\"Q5\":\"5\"}","rt":22172},{"participantID":"3lmswywcgo03yave2grh38pyqagaxjqo","judgmentIndices":[4,1,5,0,3,2],"questionScores":[24069,26,30,15,24041,19,24055,24043,24052,22],"questionIndices":[33,20,44,24,34,12,8,15,0,39],"responseType":"finish","internal_node_id":"0.0-3.0","time_elapsed":213181,"trial_index":7,"trial_type":"survey-likert","responses":"{\"Q0\":\"1\",\"Q1\":\"1\",\"Q2\":\"5\",\"Q3\":\"5\",\"Q4\":\"3\",\"Q5\":\"5\",\"Q6\":\"6\"}","rt":27578},{"participantID":"3lmswywcgo03yave2grh38pyqagaxjqo","judgmentIndices":[4,1,5,0,3,2],"questionScores":[24069,26,30,15,24041,19,24055,24043,24052,22],"questionIndices":[33,20,44,24,34,12,8,15,0,39],"responseType":"finish","internal_node_id":"0.0-4.0-0.0","time_elapsed":233486,"trial_index":8,"trial_type":"survey-likert","responses":"{\"Q0\":\"6\",\"Q1\":\"0\",\"Q2\":\"3\",\"Q3\":\"3\",\"Q4\":\"4\",\"Q5\":\"4\"}","rt":19284},{"participantID":"3lmswywcgo03yave2grh38pyqagaxjqo","judgmentIndices":[4,1,5,0,3,2],"questionScores":[24069,26,30,15,24041,19,24055,24043,24052,22],"questionIndices":[33,20,44,24,34,12,8,15,0,39],"responseType":"finish","internal_node_id":"0.0-4.0-1.0","time_elapsed":261309,"trial_index":9,"trial_type":"survey-likert","responses":"{\"Q0\":\"4\",\"Q1\":\"0\",\"Q2\":\"6\",\"Q3\":\"6\",\"Q4\":\"5\",\"Q5\":\"6\"}","rt":26801},{"participantID":"3lmswywcgo03yave2grh38pyqagaxjqo","judgmentIndices":[4,1,5,0,3,2],"questionScores":[24069,26,30,15,24041,19,24055,24043,24052,22],"questionIndices":[33,20,44,24,34,12,8,15,0,39],"responseType":"finish","internal_node_id":"0.0-4.0-2.0","time_elapsed":284370,"trial_index":10,"trial_type":"survey-likert","responses":"{\"Q0\":\"1\",\"Q1\":\"0\",\"Q2\":\"3\",\"Q3\":\"3\",\"Q4\":\"2\",\"Q5\":\"3\"}","rt":22040},{"participantID":"3lmswywcgo03yave2grh38pyqagaxjqo","judgmentIndices":[4,1,5,0,3,2],"questionScores":[24069,26,30,15,24041,19,24055,24043,24052,22],"questionIndices":[33,20,44,24,34,12,8,15,0,39],"responseType":"finish","internal_node_id":"0.0-4.0-3.0","time_elapsed":307265,"trial_index":11,"trial_type":"survey-likert","responses":"{\"Q0\":\"4\",\"Q1\":\"0\",\"Q2\":\"2\",\"Q3\":\"1\",\"Q4\":\"3\",\"Q5\":\"1\"}","rt":21872}],"__v":0}
{"_id":{"$oid":"5cabc50dd7177b00043d8500"},"data":[{"participantID":"ll8jwvqbf76kqjs2acmm50or6ol9mmj7","judgmentIndices":[4,0,1,5,2,3],"questionScores":[24040,30,24072,29,24055,20,21,21,24056,24048],"questionIndices":[38,19,36,3,10,13,16,47,32,0],"responseType":"finish","internal_node_id":"0.0-0.0","time_elapsed":6077,"trial_index":0,"trial_type":"survey-multi-choice","responses":"{\"Q0\":\"I consent to participate\"}","rt":6067},{"participantID":"ll8jwvqbf76kqjs2acmm50or6ol9mmj7","judgmentIndices":[4,0,1,5,2,3],"questionScores":[24040,30,24072,29,24055,20,21,21,24056,24048],"questionIndices":[38,19,36,3,10,13,16,47,32,0],"responseType":"finish","internal_node_id":"0.0-1.0","time_elapsed":20660,"trial_index":1,"trial_type":"instructions","rt":13582,"view_history":"[{\"page_index\":0,\"viewing_time\":13582}]"},{"participantID":"ll8jwvqbf76kqjs2acmm50or6ol9mmj7","judgmentIndices":[4,0,1,5,2,3],"questionScores":[24040,30,24072,29,24055,20,21,21,24056,24048],"questionIndices":[38,19,36,3,10,13,16,47,32,0],"responseType":"finish","internal_node_id":"0.0-2.0-0.0","time_elapsed":57350,"trial_index":2,"trial_type":"survey-likert","responses":"{\"Q0\":\"4\",\"Q1\":\"1\",\"Q2\":\"0\",\"Q3\":\"1\",\"Q4\":\"1\",\"Q5\":\"3\"}","rt":35683},{"participantID":"ll8jwvqbf76kqjs2acmm50or6ol9mmj7","judgmentIndices":[4,0,1,5,2,3],"questionScores":[24040,30,24072,29,24055,20,21,21,24056,24048],"questionIndices":[38,19,36,3,10,13,16,47,32,0],"responseType":"finish","internal_node_id":"0.0-2.0-1.0","time_elapsed":81461,"trial_index":3,"trial_type":"survey-likert","responses":"{\"Q0\":\"1\",\"Q1\":\"1\",\"Q2\":\"0\",\"Q3\":\"2\",\"Q4\":\"2\",\"Q5\":\"0\"}","rt":23106},{"participantID":"ll8jwvqbf76kqjs2acmm50or6ol9mmj7","judgmentIndices":[4,0,1,5,2,3],"questionScores":[24040,30,24072,29,24055,20,21,21,24056,24048],"questionIndices":[38,19,36,3,10,13,16,47,32,0],"responseType":"finish","internal_node_id":"0.0-2.0-2.0","time_elapsed":106301,"trial_index":4,"trial_type":"survey-likert","responses":"{\"Q0\":\"4\",\"Q1\":\"3\",\"Q2\":\"1\",\"Q3\":\"2\",\"Q4\":\"1\",\"Q5\":\"3\"}","rt":23835},{"participantID":"ll8jwvqbf76kqjs2acmm50or6ol9mmj7","judgmentIndices":[4,0,1,5,2,3],"questionScores":[24040,30,24072,29,24055,20,21,21,24056,24048],"questionIndices":[38,19,36,3,10,13,16,47,32,0],"responseType":"finish","internal_node_id":"0.0-2.0-3.0","time_elapsed":159188,"trial_index":5,"trial_type":"survey-likert","responses":"{\"Q0\":\"5\",\"Q1\":\"5\",\"Q2\":\"0\",\"Q3\":\"3\",\"Q4\":\"2\",\"Q5\":\"0\"}","rt":51884},{"participantID":"ll8jwvqbf76kqjs2acmm50or6ol9mmj7","judgmentIndices":[4,0,1,5,2,3],"questionScores":[24040,30,24072,29,24055,20,21,21,24056,24048],"questionIndices":[38,19,36,3,10,13,16,47,32,0],"responseType":"finish","internal_node_id":"0.0-2.0-4.0","time_elapsed":185116,"trial_index":6,"trial_type":"survey-likert","responses":"{\"Q0\":\"3\",\"Q1\":\"4\",\"Q2\":\"0\",\"Q3\":\"2\",\"Q4\":\"2\",\"Q5\":\"3\"}","rt":24924},{"participantID":"ll8jwvqbf76kqjs2acmm50or6ol9mmj7","judgmentIndices":[4,0,1,5,2,3],"questionScores":[24040,30,24072,29,24055,20,21,21,24056,24048],"questionIndices":[38,19,36,3,10,13,16,47,32,0],"responseType":"finish","internal_node_id":"0.0-3.0","time_elapsed":213485,"trial_index":7,"trial_type":"survey-likert","responses":"{\"Q0\":\"2\",\"Q1\":\"3\",\"Q2\":\"0\",\"Q3\":\"2\",\"Q4\":\"0\",\"Q5\":\"1\",\"Q6\":\"6\"}","rt":27364},{"participantID":"ll8jwvqbf76kqjs2acmm50or6ol9mmj7","judgmentIndices":[4,0,1,5,2,3],"questionScores":[24040,30,24072,29,24055,20,21,21,24056,24048],"questionIndices":[38,19,36,3,10,13,16,47,32,0],"responseType":"finish","internal_node_id":"0.0-4.0-0.0","time_elapsed":234284,"trial_index":8,"trial_type":"survey-likert","responses":"{\"Q0\":\"1\",\"Q1\":\"0\",\"Q2\":\"0\",\"Q3\":\"1\",\"Q4\":\"1\",\"Q5\":\"1\"}","rt":19795},{"participantID":"ll8jwvqbf76kqjs2acmm50or6ol9mmj7","judgmentIndices":[4,0,1,5,2,3],"questionScores":[24040,30,24072,29,24055,20,21,21,24056,24048],"questionIndices":[38,19,36,3,10,13,16,47,32,0],"responseType":"finish","internal_node_id":"0.0-4.0-1.0","time_elapsed":254916,"trial_index":9,"trial_type":"survey-likert","responses":"{\"Q0\":\"1\",\"Q1\":\"1\",\"Q2\":\"1\",\"Q3\":\"2\",\"Q4\":\"1\",\"Q5\":\"1\"}","rt":19628},{"participantID":"ll8jwvqbf76kqjs2acmm50or6ol9mmj7","judgmentIndices":[4,0,1,5,2,3],"questionScores":[24040,30,24072,29,24055,20,21,21,24056,24048],"questionIndices":[38,19,36,3,10,13,16,47,32,0],"responseType":"finish","internal_node_id":"0.0-4.0-2.0","time_elapsed":273300,"trial_index":10,"trial_type":"survey-likert","responses":"{\"Q0\":\"4\",\"Q1\":\"1\",\"Q2\":\"1\",\"Q3\":\"2\",\"Q4\":\"1\",\"Q5\":\"3\"}","rt":17379},{"participantID":"ll8jwvqbf76kqjs2acmm50or6ol9mmj7","judgmentIndices":[4,0,1,5,2,3],"questionScores":[24040,30,24072,29,24055,20,21,21,24056,24048],"questionIndices":[38,19,36,3,10,13,16,47,32,0],"responseType":"finish","internal_node_id":"0.0-4.0-3.0","time_elapsed":303908,"trial_index":11,"trial_type":"survey-likert","responses":"{\"Q0\":\"3\",\"Q1\":\"2\",\"Q2\":\"0\",\"Q3\":\"2\",\"Q4\":\"1\",\"Q5\":\"3\"}","rt":29603}],"__v":0}
{"_id":{"$oid":"5cabc5a2d7177b00043d8501"},"data":[{"participantID":"a9752z4umteqstua0b6u41055mh4hwqg","judgmentIndices":[5,4,3,1,0,2],"questionScores":[27,49,24,24058,24045,20,24059,24041,24065,26],"questionIndices":[38,18,8,11,45,12,24,29,15,39],"responseType":"finish","internal_node_id":"0.0-0.0","time_elapsed":8442,"trial_index":0,"trial_type":"survey-multi-choice","responses":"{\"Q0\":\"I consent to participate\"}","rt":8434},{"participantID":"a9752z4umteqstua0b6u41055mh4hwqg","judgmentIndices":[5,4,3,1,0,2],"questionScores":[27,49,24,24058,24045,20,24059,24041,24065,26],"questionIndices":[38,18,8,11,45,12,24,29,15,39],"responseType":"finish","internal_node_id":"0.0-1.0","time_elapsed":35873,"trial_index":1,"trial_type":"instructions","rt":26429,"view_history":"[{\"page_index\":0,\"viewing_time\":26428}]"},{"participantID":"a9752z4umteqstua0b6u41055mh4hwqg","judgmentIndices":[5,4,3,1,0,2],"questionScores":[27,49,24,24058,24045,20,24059,24041,24065,26],"questionIndices":[38,18,8,11,45,12,24,29,15,39],"responseType":"finish","internal_node_id":"0.0-2.0-0.0","time_elapsed":64362,"trial_index":2,"trial_type":"survey-likert","responses":"{\"Q0\":\"0\",\"Q1\":\"1\",\"Q2\":\"0\",\"Q3\":\"0\",\"Q4\":\"1\",\"Q5\":\"0\"}","rt":27483},{"participantID":"a9752z4umteqstua0b6u41055mh4hwqg","judgmentIndices":[5,4,3,1,0,2],"questionScores":[27,49,24,24058,24045,20,24059,24041,24065,26],"questionIndices":[38,18,8,11,45,12,24,29,15,39],"responseType":"finish","internal_node_id":"0.0-2.0-1.0","time_elapsed":89977,"trial_index":3,"trial_type":"survey-likert","responses":"{\"Q0\":\"3\",\"Q1\":\"0\",\"Q2\":\"2\",\"Q3\":\"1\",\"Q4\":\"4\",\"Q5\":\"4\"}","rt":24611},{"participantID":"a9752z4umteqstua0b6u41055mh4hwqg","judgmentIndices":[5,4,3,1,0,2],"questionScores":[27,49,24,24058,24045,20,24059,24041,24065,26],"questionIndices":[38,18,8,11,45,12,24,29,15,39],"responseType":"finish","internal_node_id":"0.0-2.0-2.0","time_elapsed":117361,"trial_index":4,"trial_type":"survey-likert","responses":"{\"Q0\":\"3\",\"Q1\":\"2\",\"Q2\":\"3\",\"Q3\":\"1\",\"Q4\":\"2\",\"Q5\":\"2\"}","rt":26379},{"participantID":"a9752z4umteqstua0b6u41055mh4hwqg","judgmentIndices":[5,4,3,1,0,2],"questionScores":[27,49,24,24058,24045,20,24059,24041,24065,26],"questionIndices":[38,18,8,11,45,12,24,29,15,39],"responseType":"finish","internal_node_id":"0.0-2.0-3.0","time_elapsed":146761,"trial_index":5,"trial_type":"survey-likert","responses":"{\"Q0\":\"0\",\"Q1\":\"5\",\"Q2\":\"4\",\"Q3\":\"1\",\"Q4\":\"0\",\"Q5\":\"0\"}","rt":28396},{"participantID":"a9752z4umteqstua0b6u41055mh4hwqg","judgmentIndices":[5,4,3,1,0,2],"questionScores":[27,49,24,24058,24045,20,24059,24041,24065,26],"questionIndices":[38,18,8,11,45,12,24,29,15,39],"responseType":"finish","internal_node_id":"0.0-2.0-4.0","time_elapsed":163433,"trial_index":6,"trial_type":"survey-likert","responses":"{\"Q0\":\"0\",\"Q1\":\"5\",\"Q2\":\"0\",\"Q3\":\"0\",\"Q4\":\"0\",\"Q5\":\"0\"}","rt":15669},{"participantID":"a9752z4umteqstua0b6u41055mh4hwqg","judgmentIndices":[5,4,3,1,0,2],"questionScores":[27,49,24,24058,24045,20,24059,24041,24065,26],"questionIndices":[38,18,8,11,45,12,24,29,15,39],"responseType":"finish","internal_node_id":"0.0-3.0","time_elapsed":199410,"trial_index":7,"trial_type":"survey-likert","responses":"{\"Q0\":\"3\",\"Q1\":\"4\",\"Q2\":\"3\",\"Q3\":\"2\",\"Q4\":\"1\",\"Q5\":\"2\",\"Q6\":\"6\"}","rt":34974},{"participantID":"a9752z4umteqstua0b6u41055mh4hwqg","judgmentIndices":[5,4,3,1,0,2],"questionScores":[27,49,24,24058,24045,20,24059,24041,24065,26],"questionIndices":[38,18,8,11,45,12,24,29,15,39],"responseType":"finish","internal_node_id":"0.0-4.0-0.0","time_elapsed":230153,"trial_index":8,"trial_type":"survey-likert","responses":"{\"Q0\":\"1\",\"Q1\":\"1\",\"Q2\":\"3\",\"Q3\":\"2\",\"Q4\":\"4\",\"Q5\":\"0\"}","rt":29736},{"participantID":"a9752z4umteqstua0b6u41055mh4hwqg","judgmentIndices":[5,4,3,1,0,2],"questionScores":[27,49,24,24058,24045,20,24059,24041,24065,26],"questionIndices":[38,18,8,11,45,12,24,29,15,39],"responseType":"finish","internal_node_id":"0.0-4.0-1.0","time_elapsed":257153,"trial_index":9,"trial_type":"survey-likert","responses":"{\"Q0\":\"3\",\"Q1\":\"1\",\"Q2\":\"4\",\"Q3\":\"4\",\"Q4\":\"1\",\"Q5\":\"2\"}","rt":25995},{"participantID":"a9752z4umteqstua0b6u41055mh4hwqg","judgmentIndices":[5,4,3,1,0,2],"questionScores":[27,49,24,24058,24045,20,24059,24041,24065,26],"questionIndices":[38,18,8,11,45,12,24,29,15,39],"responseType":"finish","internal_node_id":"0.0-4.0-2.0","time_elapsed":281385,"trial_index":10,"trial_type":"survey-likert","responses":"{\"Q0\":\"4\",\"Q1\":\"4\",\"Q2\":\"1\",\"Q3\":\"1\",\"Q4\":\"3\",\"Q5\":\"1\"}","rt":23227},{"participantID":"a9752z4umteqstua0b6u41055mh4hwqg","judgmentIndices":[5,4,3,1,0,2],"questionScores":[27,49,24,24058,24045,20,24059,24041,24065,26],"questionIndices":[38,18,8,11,45,12,24,29,15,39],"responseType":"finish","internal_node_id":"0.0-4.0-3.0","time_elapsed":324129,"trial_index":11,"trial_type":"survey-likert","responses":"{\"Q0\":\"1\",\"Q1\":\"0\",\"Q2\":\"1\",\"Q3\":\"5\",\"Q4\":\"1\",\"Q5\":\"0\"}","rt":41736}],"__v":0}
{"_id":{"$oid":"5cabc5d2d7177b00043d8502"},"data":[{"participantID":"nu0ggo5w7e4c8rcgvt3nv998xcj9vav9","judgmentIndices":[3,1,5,4,2,0],"questionScores":[24043,39,14,20,24044,24038,24034,24048,26,25],"questionIndices":[48,20,1,9,26,4,11,8,35,38],"responseType":"finish","internal_node_id":"0.0-0.0","time_elapsed":4238,"trial_index":0,"trial_type":"survey-multi-choice","responses":"{\"Q0\":\"I consent to participate\"}","rt":4230},{"participantID":"nu0ggo5w7e4c8rcgvt3nv998xcj9vav9","judgmentIndices":[3,1,5,4,2,0],"questionScores":[24043,39,14,20,24044,24038,24034,24048,26,25],"questionIndices":[48,20,1,9,26,4,11,8,35,38],"responseType":"finish","internal_node_id":"0.0-1.0","time_elapsed":7483,"trial_index":1,"trial_type":"instructions","rt":2243,"view_history":"[{\"page_index\":0,\"viewing_time\":2242}]"},{"participantID":"nu0ggo5w7e4c8rcgvt3nv998xcj9vav9","judgmentIndices":[3,1,5,4,2,0],"questionScores":[24043,39,14,20,24044,24038,24034,24048,26,25],"questionIndices":[48,20,1,9,26,4,11,8,35,38],"responseType":"finish","internal_node_id":"0.0-2.0-0.0","time_elapsed":59378,"trial_index":2,"trial_type":"survey-likert","responses":"{\"Q0\":\"3\",\"Q1\":\"0\",\"Q2\":\"0\",\"Q3\":\"6\",\"Q4\":\"0\",\"Q5\":\"2\"}","rt":50890},{"participantID":"nu0ggo5w7e4c8rcgvt3nv998xcj9vav9","judgmentIndices":[3,1,5,4,2,0],"questionScores":[24043,39,14,20,24044,24038,24034,24048,26,25],"questionIndices":[48,20,1,9,26,4,11,8,35,38],"responseType":"finish","internal_node_id":"0.0-2.0-1.0","time_elapsed":101636,"trial_index":3,"trial_type":"survey-likert","responses":"{\"Q0\":\"0\",\"Q1\":\"0\",\"Q2\":\"0\",\"Q3\":\"6\",\"Q4\":\"0\",\"Q5\":\"3\"}","rt":41253},{"participantID":"nu0ggo5w7e4c8rcgvt3nv998xcj9vav9","judgmentIndices":[3,1,5,4,2,0],"questionScores":[24043,39,14,20,24044,24038,24034,24048,26,25],"questionIndices":[48,20,1,9,26,4,11,8,35,38],"responseType":"finish","internal_node_id":"0.0-2.0-2.0","time_elapsed":158056,"trial_index":4,"trial_type":"survey-likert","responses":"{\"Q0\":\"0\",\"Q1\":\"0\",\"Q2\":\"0\",\"Q3\":\"0\",\"Q4\":\"0\",\"Q5\":\"0\"}","rt":55415},{"participantID":"nu0ggo5w7e4c8rcgvt3nv998xcj9vav9","judgmentIndices":[3,1,5,4,2,0],"questionScores":[24043,39,14,20,24044,24038,24034,24048,26,25],"questionIndices":[48,20,1,9,26,4,11,8,35,38],"responseType":"finish","internal_node_id":"0.0-2.0-3.0","time_elapsed":180963,"trial_index":5,"trial_type":"survey-likert","responses":"{\"Q0\":\"0\",\"Q1\":\"0\",\"Q2\":\"0\",\"Q3\":\"0\",\"Q4\":\"0\",\"Q5\":\"0\"}","rt":21903},{"participantID":"nu0ggo5w7e4c8rcgvt3nv998xcj9vav9","judgmentIndices":[3,1,5,4,2,0],"questionScores":[24043,39,14,20,24044,24038,24034,24048,26,25],"questionIndices":[48,20,1,9,26,4,11,8,35,38],"responseType":"finish","internal_node_id":"0.0-2.0-4.0","time_elapsed":219421,"trial_index":6,"trial_type":"survey-likert","responses":"{\"Q0\":\"6\",\"Q1\":\"0\",\"Q2\":\"0\",\"Q3\":\"6\",\"Q4\":\"4\",\"Q5\":\"4\"}","rt":37454},{"participantID":"nu0ggo5w7e4c8rcgvt3nv998xcj9vav9","judgmentIndices":[3,1,5,4,2,0],"questionScores":[24043,39,14,20,24044,24038,24034,24048,26,25],"questionIndices":[48,20,1,9,26,4,11,8,35,38],"responseType":"finish","internal_node_id":"0.0-3.0","time_elapsed":240991,"trial_index":7,"trial_type":"survey-likert","responses":"{\"Q0\":\"6\",\"Q1\":\"0\",\"Q2\":\"0\",\"Q3\":\"6\",\"Q4\":\"0\",\"Q5\":\"0\",\"Q6\":\"6\"}","rt":20565},{"participantID":"nu0ggo5w7e4c8rcgvt3nv998xcj9vav9","judgmentIndices":[3,1,5,4,2,0],"questionScores":[24043,39,14,20,24044,24038,24034,24048,26,25],"questionIndices":[48,20,1,9,26,4,11,8,35,38],"responseType":"finish","internal_node_id":"0.0-4.0-0.0","time_elapsed":254960,"trial_index":8,"trial_type":"survey-likert","responses":"{\"Q0\":\"6\",\"Q1\":\"6\",\"Q2\":\"0\",\"Q3\":\"0\",\"Q4\":\"0\",\"Q5\":\"0\"}","rt":12964},{"participantID":"nu0ggo5w7e4c8rcgvt3nv998xcj9vav9","judgmentIndices":[3,1,5,4,2,0],"questionScores":[24043,39,14,20,24044,24038,24034,24048,26,25],"questionIndices":[48,20,1,9,26,4,11,8,35,38],"responseType":"finish","internal_node_id":"0.0-4.0-1.0","time_elapsed":401816,"trial_index":9,"trial_type":"survey-likert","responses":"{\"Q0\":\"4\",\"Q1\":\"0\",\"Q2\":\"0\",\"Q3\":\"6\",\"Q4\":\"0\",\"Q5\":\"0\"}","rt":145852},{"participantID":"nu0ggo5w7e4c8rcgvt3nv998xcj9vav9","judgmentIndices":[3,1,5,4,2,0],"questionScores":[24043,39,14,20,24044,24038,24034,24048,26,25],"questionIndices":[48,20,1,9,26,4,11,8,35,38],"responseType":"finish","internal_node_id":"0.0-4.0-2.0","time_elapsed":445693,"trial_index":10,"trial_type":"survey-likert","responses":"{\"Q0\":\"0\",\"Q1\":\"0\",\"Q2\":\"0\",\"Q3\":\"0\",\"Q4\":\"0\",\"Q5\":\"0\"}","rt":42873},{"participantID":"nu0ggo5w7e4c8rcgvt3nv998xcj9vav9","judgmentIndices":[3,1,5,4,2,0],"questionScores":[24043,39,14,20,24044,24038,24034,24048,26,25],"questionIndices":[48,20,1,9,26,4,11,8,35,38],"responseType":"finish","internal_node_id":"0.0-4.0-3.0","time_elapsed":483678,"trial_index":11,"trial_type":"survey-likert","responses":"{\"Q0\":\"1\",\"Q1\":\"0\",\"Q2\":\"0\",\"Q3\":\"0\",\"Q4\":\"0\",\"Q5\":\"0\"}","rt":36981}],"__v":0}
{"_id":{"$oid":"5cabc60cd7177b00043d8503"},"data":[{"participantID":"g5ekzhv56xn3eh1b5hca8r7ku9aycnrs","judgmentIndices":[0,1,5,3,2,4],"questionScores":[24039,21,24061,20,24048,13,24058,12,35,24050],"questionIndices":[18,36,45,35,42,32,30,29,17,13],"responseType":"finish","internal_node_id":"0.0-0.0","time_elapsed":3660,"trial_index":0,"trial_type":"survey-multi-choice","responses":"{\"Q0\":\"I consent to participate\"}","rt":3640},{"participantID":"g5ekzhv56xn3eh1b5hca8r7ku9aycnrs","judgmentIndices":[0,1,5,3,2,4],"questionScores":[24039,21,24061,20,24048,13,24058,12,35,24050],"questionIndices":[18,36,45,35,42,32,30,29,17,13],"responseType":"finish","internal_node_id":"0.0-1.0","time_elapsed":23590,"trial_index":1,"trial_type":"instructions","rt":18927,"view_history":"[{\"page_index\":0,\"viewing_time\":18926}]"},{"participantID":"g5ekzhv56xn3eh1b5hca8r7ku9aycnrs","judgmentIndices":[0,1,5,3,2,4],"questionScores":[24039,21,24061,20,24048,13,24058,12,35,24050],"questionIndices":[18,36,45,35,42,32,30,29,17,13],"responseType":"finish","internal_node_id":"0.0-2.0-0.0","time_elapsed":58379,"trial_index":2,"trial_type":"survey-likert","responses":"{\"Q0\":\"5\",\"Q1\":\"1\",\"Q2\":\"4\",\"Q3\":\"4\",\"Q4\":\"5\",\"Q5\":\"3\"}","rt":33776},{"participantID":"g5ekzhv56xn3eh1b5hca8r7ku9aycnrs","judgmentIndices":[0,1,5,3,2,4],"questionScores":[24039,21,24061,20,24048,13,24058,12,35,24050],"questionIndices":[18,36,45,35,42,32,30,29,17,13],"responseType":"finish","internal_node_id":"0.0-2.0-1.0","time_elapsed":92978,"trial_index":3,"trial_type":"survey-likert","responses":"{\"Q0\":\"4\",\"Q1\":\"1\",\"Q2\":\"4\",\"Q3\":\"2\",\"Q4\":\"3\",\"Q5\":\"4\"}","rt":33588},{"participantID":"g5ekzhv56xn3eh1b5hca8r7ku9aycnrs","judgmentIndices":[0,1,5,3,2,4],"questionScores":[24039,21,24061,20,24048,13,24058,12,35,24050],"questionIndices":[18,36,45,35,42,32,30,29,17,13],"responseType":"finish","internal_node_id":"0.0-2.0-2.0","time_elapsed":136896,"trial_index":4,"trial_type":"survey-likert","responses":"{\"Q0\":\"3\",\"Q1\":\"1\",\"Q2\":\"3\",\"Q3\":\"3\",\"Q4\":\"4\",\"Q5\":\"3\"}","rt":42908},{"participantID":"g5ekzhv56xn3eh1b5hca8r7ku9aycnrs","judgmentIndices":[0,1,5,3,2,4],"questionScores":[24039,21,24061,20,24048,13,24058,12,35,24050],"questionIndices":[18,36,45,35,42,32,30,29,17,13],"responseType":"finish","internal_node_id":"0.0-2.0-3.0","time_elapsed":184091,"trial_index":5,"trial_type":"survey-likert","responses":"{\"Q0\":\"6\",\"Q1\":\"0\",\"Q2\":\"4\",\"Q3\":\"6\",\"Q4\":\"5\",\"Q5\":\"4\"}","rt":46189},{"participantID":"g5ekzhv56xn3eh1b5hca8r7ku9aycnrs","judgmentIndices":[0,1,5,3,2,4],"questionScores":[24039,21,24061,20,24048,13,24058,12,35,24050],"questionIndices":[18,36,45,35,42,32,30,29,17,13],"responseType":"finish","internal_node_id":"0.0-2.0-4.0","time_elapsed":209366,"trial_index":6,"trial_type":"survey-likert","responses":"{\"Q0\":\"3\",\"Q1\":\"4\",\"Q2\":\"3\",\"Q3\":\"2\",\"Q4\":\"4\",\"Q5\":\"2\"}","rt":24269},{"participantID":"g5ekzhv56xn3eh1b5hca8r7ku9aycnrs","judgmentIndices":[0,1,5,3,2,4],"questionScores":[24039,21,24061,20,24048,13,24058,12,35,24050],"questionIndices":[18,36,45,35,42,32,30,29,17,13],"responseType":"finish","internal_node_id":"0.0-3.0","time_elapsed":239861,"trial_index":7,"trial_type":"survey-likert","responses":"{\"Q0\":\"3\",\"Q1\":\"5\",\"Q2\":\"5\",\"Q3\":\"4\",\"Q4\":\"5\",\"Q5\":\"3\",\"Q6\":\"6\"}","rt":29491},{"participantID":"g5ekzhv56xn3eh1b5hca8r7ku9aycnrs","judgmentIndices":[0,1,5,3,2,4],"questionScores":[24039,21,24061,20,24048,13,24058,12,35,24050],"questionIndices":[18,36,45,35,42,32,30,29,17,13],"responseType":"finish","internal_node_id":"0.0-4.0-0.0","time_elapsed":264837,"trial_index":8,"trial_type":"survey-likert","responses":"{\"Q0\":\"4\",\"Q1\":\"3\",\"Q2\":\"5\",\"Q3\":\"4\",\"Q4\":\"4\",\"Q5\":\"4\"}","rt":23971},{"participantID":"g5ekzhv56xn3eh1b5hca8r7ku9aycnrs","judgmentIndices":[0,1,5,3,2,4],"questionScores":[24039,21,24061,20,24048,13,24058,12,35,24050],"questionIndices":[18,36,45,35,42,32,30,29,17,13],"responseType":"finish","internal_node_id":"0.0-4.0-1.0","time_elapsed":282721,"trial_index":9,"trial_type":"survey-likert","responses":"{\"Q0\":\"6\",\"Q1\":\"1\",\"Q2\":\"4\",\"Q3\":\"5\",\"Q4\":\"5\",\"Q5\":\"4\"}","rt":16881},{"participantID":"g5ekzhv56xn3eh1b5hca8r7ku9aycnrs","judgmentIndices":[0,1,5,3,2,4],"questionScores":[24039,21,24061,20,24048,13,24058,12,35,24050],"questionIndices":[18,36,45,35,42,32,30,29,17,13],"responseType":"finish","internal_node_id":"0.0-4.0-2.0","time_elapsed":350700,"trial_index":10,"trial_type":"survey-likert","responses":"{\"Q0\":\"5\",\"Q1\":\"3\",\"Q2\":\"5\",\"Q3\":\"3\",\"Q4\":\"6\",\"Q5\":\"2\"}","rt":66967},{"participantID":"g5ekzhv56xn3eh1b5hca8r7ku9aycnrs","judgmentIndices":[0,1,5,3,2,4],"questionScores":[24039,21,24061,20,24048,13,24058,12,35,24050],"questionIndices":[18,36,45,35,42,32,30,29,17,13],"responseType":"finish","internal_node_id":"0.0-4.0-3.0","time_elapsed":376288,"trial_index":11,"trial_type":"survey-likert","responses":"{\"Q0\":\"5\",\"Q1\":\"3\",\"Q2\":\"3\",\"Q3\":\"4\",\"Q4\":\"3\",\"Q5\":\"4\"}","rt":24579}],"__v":0}
{"_id":{"$oid":"5cabc6afd7177b00043d8504"},"data":[{"participantID":"zt4x1dtgsf997s7xg52l37fwmc9dh9n9","judgmentIndices":[5,2,1,3,4,0],"questionScores":[41,28,17,24047,24040,36,24040,24055,18,24043],"questionIndices":[48,44,34,15,49,9,37,24,27,11],"responseType":"finish","internal_node_id":"0.0-0.0","time_elapsed":7644,"trial_index":0,"trial_type":"survey-multi-choice","responses":"{\"Q0\":\"I consent to participate\"}","rt":7633},{"participantID":"zt4x1dtgsf997s7xg52l37fwmc9dh9n9","judgmentIndices":[5,2,1,3,4,0],"questionScores":[41,28,17,24047,24040,36,24040,24055,18,24043],"questionIndices":[48,44,34,15,49,9,37,24,27,11],"responseType":"finish","internal_node_id":"0.0-1.0","time_elapsed":19558,"trial_index":1,"trial_type":"instructions","rt":10912,"view_history":"[{\"page_index\":0,\"viewing_time\":10911}]"},{"participantID":"zt4x1dtgsf997s7xg52l37fwmc9dh9n9","judgmentIndices":[5,2,1,3,4,0],"questionScores":[41,28,17,24047,24040,36,24040,24055,18,24043],"questionIndices":[48,44,34,15,49,9,37,24,27,11],"responseType":"finish","internal_node_id":"0.0-2.0-0.0","time_elapsed":55279,"trial_index":2,"trial_type":"survey-likert","responses":"{\"Q0\":\"0\",\"Q1\":\"0\",\"Q2\":\"5\",\"Q3\":\"2\",\"Q4\":\"0\",\"Q5\":\"0\"}","rt":34715},{"participantID":"zt4x1dtgsf997s7xg52l37fwmc9dh9n9","judgmentIndices":[5,2,1,3,4,0],"questionScores":[41,28,17,24047,24040,36,24040,24055,18,24043],"questionIndices":[48,44,34,15,49,9,37,24,27,11],"responseType":"finish","internal_node_id":"0.0-2.0-1.0","time_elapsed":79036,"trial_index":3,"trial_type":"survey-likert","responses":"{\"Q0\":\"0\",\"Q1\":\"3\",\"Q2\":\"3\",\"Q3\":\"2\",\"Q4\":\"0\",\"Q5\":\"2\"}","rt":22751},{"participantID":"zt4x1dtgsf997s7xg52l37fwmc9dh9n9","judgmentIndices":[5,2,1,3,4,0],"questionScores":[41,28,17,24047,24040,36,24040,24055,18,24043],"questionIndices":[48,44,34,15,49,9,37,24,27,11],"responseType":"finish","internal_node_id":"0.0-2.0-2.0","time_elapsed":106942,"trial_index":4,"trial_type":"survey-likert","responses":"{\"Q0\":\"0\",\"Q1\":\"4\",\"Q2\":\"6\",\"Q3\":\"1\",\"Q4\":\"0\",\"Q5\":\"0\"}","rt":26901},{"participantID":"zt4x1dtgsf997s7xg52l37fwmc9dh9n9","judgmentIndices":[5,2,1,3,4,0],"questionScores":[41,28,17,24047,24040,36,24040,24055,18,24043],"questionIndices":[48,44,34,15,49,9,37,24,27,11],"responseType":"finish","internal_node_id":"0.0-2.0-3.0","time_elapsed":133955,"trial_index":5,"trial_type":"survey-likert","responses":"{\"Q0\":\"2\",\"Q1\":\"2\",\"Q2\":\"0\",\"Q3\":\"6\",\"Q4\":\"6\",\"Q5\":\"6\"}","rt":26001},{"participantID":"zt4x1dtgsf997s7xg52l37fwmc9dh9n9","judgmentIndices":[5,2,1,3,4,0],"questionScores":[41,28,17,24047,24040,36,24040,24055,18,24043],"questionIndices":[48,44,34,15,49,9,37,24,27,11],"responseType":"finish","internal_node_id":"0.0-2.0-4.0","time_elapsed":163967,"trial_index":6,"trial_type":"survey-likert","responses":"{\"Q0\":\"1\",\"Q1\":\"1\",\"Q2\":\"4\",\"Q3\":\"6\",\"Q4\":\"0\",\"Q5\":\"0\"}","rt":29005},{"participantID":"zt4x1dtgsf997s7xg52l37fwmc9dh9n9","judgmentIndices":[5,2,1,3,4,0],"questionScores":[41,28,17,24047,24040,36,24040,24055,18,24043],"questionIndices":[48,44,34,15,49,9,37,24,27,11],"responseType":"finish","internal_node_id":"0.0-3.0","time_elapsed":209536,"trial_index":7,"trial_type":"survey-likert","responses":"{\"Q0\":\"0\",\"Q1\":\"0\",\"Q2\":\"0\",\"Q3\":\"1\",\"Q4\":\"0\",\"Q5\":\"0\",\"Q6\":\"6\"}","rt":44563},{"participantID":"zt4x1dtgsf997s7xg52l37fwmc9dh9n9","judgmentIndices":[5,2,1,3,4,0],"questionScores":[41,28,17,24047,24040,36,24040,24055,18,24043],"questionIndices":[48,44,34,15,49,9,37,24,27,11],"responseType":"finish","internal_node_id":"0.0-4.0-0.0","time_elapsed":228668,"trial_index":8,"trial_type":"survey-likert","responses":"{\"Q0\":\"2\",\"Q1\":\"2\",\"Q2\":\"4\",\"Q3\":\"6\",\"Q4\":\"0\",\"Q5\":\"1\"}","rt":18122},{"participantID":"zt4x1dtgsf997s7xg52l37fwmc9dh9n9","judgmentIndices":[5,2,1,3,4,0],"questionScores":[41,28,17,24047,24040,36,24040,24055,18,24043],"questionIndices":[48,44,34,15,49,9,37,24,27,11],"responseType":"finish","internal_node_id":"0.0-4.0-1.0","time_elapsed":248703,"trial_index":9,"trial_type":"survey-likert","responses":"{\"Q0\":\"0\",\"Q1\":\"0\",\"Q2\":\"5\",\"Q3\":\"6\",\"Q4\":\"0\",\"Q5\":\"0\"}","rt":19029},{"participantID":"zt4x1dtgsf997s7xg52l37fwmc9dh9n9","judgmentIndices":[5,2,1,3,4,0],"questionScores":[41,28,17,24047,24040,36,24040,24055,18,24043],"questionIndices":[48,44,34,15,49,9,37,24,27,11],"responseType":"finish","internal_node_id":"0.0-4.0-2.0","time_elapsed":268886,"trial_index":10,"trial_type":"survey-likert","responses":"{\"Q0\":\"0\",\"Q1\":\"0\",\"Q2\":\"6\",\"Q3\":\"0\",\"Q4\":\"0\",\"Q5\":\"0\"}","rt":19170},{"participantID":"zt4x1dtgsf997s7xg52l37fwmc9dh9n9","judgmentIndices":[5,2,1,3,4,0],"questionScores":[41,28,17,24047,24040,36,24040,24055,18,24043],"questionIndices":[48,44,34,15,49,9,37,24,27,11],"responseType":"finish","internal_node_id":"0.0-4.0-3.0","time_elapsed":289649,"trial_index":11,"trial_type":"survey-likert","responses":"{\"Q0\":\"0\",\"Q1\":\"6\",\"Q2\":\"6\",\"Q3\":\"6\",\"Q4\":\"0\",\"Q5\":\"0\"}","rt":19753}],"__v":0}
{"_id":{"$oid":"5cabc749d7177b00043d8505"},"data":[{"participantID":"y2ft86a9r5tq7acmz6quqbhgsv856g9e","judgmentIndices":[2,4,1,5,0,3],"questionScores":[24071,37,15,28,24062,24050,8,24038,25,24049],"questionIndices":[11,23,38,0,7,13,46,44,45,22],"responseType":"finish","internal_node_id":"0.0-0.0","time_elapsed":14626,"trial_index":0,"trial_type":"survey-multi-choice","responses":"{\"Q0\":\"I consent to participate\"}","rt":14613},{"participantID":"y2ft86a9r5tq7acmz6quqbhgsv856g9e","judgmentIndices":[2,4,1,5,0,3],"questionScores":[24071,37,15,28,24062,24050,8,24038,25,24049],"questionIndices":[11,23,38,0,7,13,46,44,45,22],"responseType":"finish","internal_node_id":"0.0-1.0","time_elapsed":46576,"trial_index":1,"trial_type":"instructions","rt":30949,"view_history":"[{\"page_index\":0,\"viewing_time\":30948}]"},{"participantID":"y2ft86a9r5tq7acmz6quqbhgsv856g9e","judgmentIndices":[2,4,1,5,0,3],"questionScores":[24071,37,15,28,24062,24050,8,24038,25,24049],"questionIndices":[11,23,38,0,7,13,46,44,45,22],"responseType":"finish","internal_node_id":"0.0-2.0-0.0","time_elapsed":88313,"trial_index":2,"trial_type":"survey-likert","responses":"{\"Q0\":\"5\",\"Q1\":\"0\",\"Q2\":\"3\",\"Q3\":\"3\",\"Q4\":\"6\",\"Q5\":\"5\"}","rt":40730},{"participantID":"y2ft86a9r5tq7acmz6quqbhgsv856g9e","judgmentIndices":[2,4,1,5,0,3],"questionScores":[24071,37,15,28,24062,24050,8,24038,25,24049],"questionIndices":[11,23,38,0,7,13,46,44,45,22],"responseType":"finish","internal_node_id":"0.0-2.0-1.0","time_elapsed":125776,"trial_index":3,"trial_type":"survey-likert","responses":"{\"Q0\":\"0\",\"Q1\":\"3\",\"Q2\":\"0\",\"Q3\":\"1\",\"Q4\":\"1\",\"Q5\":\"0\"}","rt":36457},{"participantID":"y2ft86a9r5tq7acmz6quqbhgsv856g9e","judgmentIndices":[2,4,1,5,0,3],"questionScores":[24071,37,15,28,24062,24050,8,24038,25,24049],"questionIndices":[11,23,38,0,7,13,46,44,45,22],"responseType":"finish","internal_node_id":"0.0-2.0-2.0","time_elapsed":159735,"trial_index":4,"trial_type":"survey-likert","responses":"{\"Q0\":\"0\",\"Q1\":\"1\",\"Q2\":\"1\",\"Q3\":\"1\",\"Q4\":\"0\",\"Q5\":\"3\"}","rt":32955},{"participantID":"y2ft86a9r5tq7acmz6quqbhgsv856g9e","judgmentIndices":[2,4,1,5,0,3],"questionScores":[24071,37,15,28,24062,24050,8,24038,25,24049],"questionIndices":[11,23,38,0,7,13,46,44,45,22],"responseType":"finish","internal_node_id":"0.0-2.0-3.0","time_elapsed":196086,"trial_index":5,"trial_type":"survey-likert","responses":"{\"Q0\":\"3\",\"Q1\":\"4\",\"Q2\":\"1\",\"Q3\":\"4\",\"Q4\":\"4\",\"Q5\":\"4\"}","rt":35345},{"participantID":"y2ft86a9r5tq7acmz6quqbhgsv856g9e","judgmentIndices":[2,4,1,5,0,3],"questionScores":[24071,37,15,28,24062,24050,8,24038,25,24049],"questionIndices":[11,23,38,0,7,13,46,44,45,22],"responseType":"finish","internal_node_id":"0.0-2.0-4.0","time_elapsed":221853,"trial_index":6,"trial_type":"survey-likert","responses":"{\"Q0\":\"0\",\"Q1\":\"5\",\"Q2\":\"0\",\"Q3\":\"1\",\"Q4\":\"1\",\"Q5\":\"1\"}","rt":24762},{"participantID":"y2ft86a9r5tq7acmz6quqbhgsv856g9e","judgmentIndices":[2,4,1,5,0,3],"questionScores":[24071,37,15,28,24062,24050,8,24038,25,24049],"questionIndices":[11,23,38,0,7,13,46,44,45,22],"responseType":"finish","internal_node_id":"0.0-3.0","time_elapsed":275191,"trial_index":7,"trial_type":"survey-likert","responses":"{\"Q0\":\"1\",\"Q1\":\"3\",\"Q2\":\"1\",\"Q3\":\"1\",\"Q4\":\"1\",\"Q5\":\"1\",\"Q6\":\"6\"}","rt":52331},{"participantID":"y2ft86a9r5tq7acmz6quqbhgsv856g9e","judgmentIndices":[2,4,1,5,0,3],"questionScores":[24071,37,15,28,24062,24050,8,24038,25,24049],"questionIndices":[11,23,38,0,7,13,46,44,45,22],"responseType":"finish","internal_node_id":"0.0-4.0-0.0","time_elapsed":299749,"trial_index":8,"trial_type":"survey-likert","responses":"{\"Q0\":\"3\",\"Q1\":\"3\",\"Q2\":\"1\",\"Q3\":\"4\",\"Q4\":\"5\",\"Q5\":\"3\"}","rt":23553},{"participantID":"y2ft86a9r5tq7acmz6quqbhgsv856g9e","judgmentIndices":[2,4,1,5,0,3],"questionScores":[24071,37,15,28,24062,24050,8,24038,25,24049],"questionIndices":[11,23,38,0,7,13,46,44,45,22],"responseType":"finish","internal_node_id":"0.0-4.0-1.0","time_elapsed":327917,"trial_index":9,"trial_type":"survey-likert","responses":"{\"Q0\":\"6\",\"Q1\":\"5\",\"Q2\":\"0\",\"Q3\":\"4\",\"Q4\":\"5\",\"Q5\":\"5\"}","rt":27162},{"participantID":"y2ft86a9r5tq7acmz6quqbhgsv856g9e","judgmentIndices":[2,4,1,5,0,3],"questionScores":[24071,37,15,28,24062,24050,8,24038,25,24049],"questionIndices":[11,23,38,0,7,13,46,44,45,22],"responseType":"finish","internal_node_id":"0.0-4.0-2.0","time_elapsed":359053,"trial_index":10,"trial_type":"survey-likert","responses":"{\"Q0\":\"0\",\"Q1\":\"0\",\"Q2\":\"0\",\"Q3\":\"0\",\"Q4\":\"0\",\"Q5\":\"0\"}","rt":30129},{"participantID":"y2ft86a9r5tq7acmz6quqbhgsv856g9e","judgmentIndices":[2,4,1,5,0,3],"questionScores":[24071,37,15,28,24062,24050,8,24038,25,24049],"questionIndices":[11,23,38,0,7,13,46,44,45,22],"responseType":"finish","internal_node_id":"0.0-4.0-3.0","time_elapsed":392205,"trial_index":11,"trial_type":"survey-likert","responses":"{\"Q0\":\"0\",\"Q1\":\"5\",\"Q2\":\"0\",\"Q3\":\"1\",\"Q4\":\"5\",\"Q5\":\"5\"}","rt":32145}],"__v":0}
{"_id":{"$oid":"5cabc74fd7177b00043d8506"},"data":[{"participantID":"1q7s1n83absxbw9ou0q8ah780qdwp8hs","judgmentIndices":[3,5,2,0,1,4],"questionScores":[14,24059,24046,24045,22,27,24037,24061,27,30],"questionIndices":[9,17,11,2,22,45,25,31,29,10],"responseType":"finish","internal_node_id":"0.0-0.0","time_elapsed":7860,"trial_index":0,"trial_type":"survey-multi-choice","responses":"{\"Q0\":\"I consent to participate\"}","rt":7847},{"participantID":"1q7s1n83absxbw9ou0q8ah780qdwp8hs","judgmentIndices":[3,5,2,0,1,4],"questionScores":[14,24059,24046,24045,22,27,24037,24061,27,30],"questionIndices":[9,17,11,2,22,45,25,31,29,10],"responseType":"finish","internal_node_id":"0.0-1.0","time_elapsed":18737,"trial_index":1,"trial_type":"instructions","rt":9874,"view_history":"[{\"page_index\":0,\"viewing_time\":9874}]"},{"participantID":"1q7s1n83absxbw9ou0q8ah780qdwp8hs","judgmentIndices":[3,5,2,0,1,4],"questionScores":[14,24059,24046,24045,22,27,24037,24061,27,30],"questionIndices":[9,17,11,2,22,45,25,31,29,10],"responseType":"finish","internal_node_id":"0.0-2.0-0.0","time_elapsed":53772,"trial_index":2,"trial_type":"survey-likert","responses":"{\"Q0\":\"4\",\"Q1\":\"3\",\"Q2\":\"3\",\"Q3\":\"5\",\"Q4\":\"1\",\"Q5\":\"1\"}","rt":34020},{"participantID":"1q7s1n83absxbw9ou0q8ah780qdwp8hs","judgmentIndices":[3,5,2,0,1,4],"questionScores":[14,24059,24046,24045,22,27,24037,24061,27,30],"questionIndices":[9,17,11,2,22,45,25,31,29,10],"responseType":"finish","internal_node_id":"0.0-2.0-1.0","time_elapsed":84308,"trial_index":3,"trial_type":"survey-likert","responses":"{\"Q0\":\"3\",\"Q1\":\"2\",\"Q2\":\"4\",\"Q3\":\"4\",\"Q4\":\"5\",\"Q5\":\"2\"}","rt":29523},{"participantID":"1q7s1n83absxbw9ou0q8ah780qdwp8hs","judgmentIndices":[3,5,2,0,1,4],"questionScores":[14,24059,24046,24045,22,27,24037,24061,27,30],"questionIndices":[9,17,11,2,22,45,25,31,29,10],"responseType":"finish","internal_node_id":"0.0-2.0-2.0","time_elapsed":116034,"trial_index":4,"trial_type":"survey-likert","responses":"{\"Q0\":\"4\",\"Q1\":\"2\",\"Q2\":\"1\",\"Q3\":\"1\",\"Q4\":\"6\",\"Q5\":\"3\"}","rt":30714},{"participantID":"1q7s1n83absxbw9ou0q8ah780qdwp8hs","judgmentIndices":[3,5,2,0,1,4],"questionScores":[14,24059,24046,24045,22,27,24037,24061,27,30],"questionIndices":[9,17,11,2,22,45,25,31,29,10],"responseType":"finish","internal_node_id":"0.0-2.0-3.0","time_elapsed":139106,"trial_index":5,"trial_type":"survey-likert","responses":"{\"Q0\":\"4\",\"Q1\":\"2\",\"Q2\":\"3\",\"Q3\":\"1\",\"Q4\":\"4\",\"Q5\":\"3\"}","rt":22056},{"participantID":"1q7s1n83absxbw9ou0q8ah780qdwp8hs","judgmentIndices":[3,5,2,0,1,4],"questionScores":[14,24059,24046,24045,22,27,24037,24061,27,30],"questionIndices":[9,17,11,2,22,45,25,31,29,10],"responseType":"finish","internal_node_id":"0.0-2.0-4.0","time_elapsed":163018,"trial_index":6,"trial_type":"survey-likert","responses":"{\"Q0\":\"1\",\"Q1\":\"2\",\"Q2\":\"1\",\"Q3\":\"1\",\"Q4\":\"6\",\"Q5\":\"4\"}","rt":22896},{"participantID":"1q7s1n83absxbw9ou0q8ah780qdwp8hs","judgmentIndices":[3,5,2,0,1,4],"questionScores":[14,24059,24046,24045,22,27,24037,24061,27,30],"questionIndices":[9,17,11,2,22,45,25,31,29,10],"responseType":"finish","internal_node_id":"0.0-3.0","time_elapsed":188883,"trial_index":7,"trial_type":"survey-likert","responses":"{\"Q0\":\"3\",\"Q1\":\"2\",\"Q2\":\"4\",\"Q3\":\"3\",\"Q4\":\"2\",\"Q5\":\"3\",\"Q6\":\"6\"}","rt":24852},{"participantID":"1q7s1n83absxbw9ou0q8ah780qdwp8hs","judgmentIndices":[3,5,2,0,1,4],"questionScores":[14,24059,24046,24045,22,27,24037,24061,27,30],"questionIndices":[9,17,11,2,22,45,25,31,29,10],"responseType":"finish","internal_node_id":"0.0-4.0-0.0","time_elapsed":210251,"trial_index":8,"trial_type":"survey-likert","responses":"{\"Q0\":\"5\",\"Q1\":\"3\",\"Q2\":\"2\",\"Q3\":\"4\",\"Q4\":\"1\",\"Q5\":\"5\"}","rt":20355},{"participantID":"1q7s1n83absxbw9ou0q8ah780qdwp8hs","judgmentIndices":[3,5,2,0,1,4],"questionScores":[14,24059,24046,24045,22,27,24037,24061,27,30],"questionIndices":[9,17,11,2,22,45,25,31,29,10],"responseType":"finish","internal_node_id":"0.0-4.0-1.0","time_elapsed":230979,"trial_index":9,"trial_type":"survey-likert","responses":"{\"Q0\":\"5\",\"Q1\":\"4\",\"Q2\":\"2\",\"Q3\":\"1\",\"Q4\":\"5\",\"Q5\":\"5\"}","rt":19716},{"participantID":"1q7s1n83absxbw9ou0q8ah780qdwp8hs","judgmentIndices":[3,5,2,0,1,4],"questionScores":[14,24059,24046,24045,22,27,24037,24061,27,30],"questionIndices":[9,17,11,2,22,45,25,31,29,10],"responseType":"finish","internal_node_id":"0.0-4.0-2.0","time_elapsed":255586,"trial_index":10,"trial_type":"survey-likert","responses":"{\"Q0\":\"1\",\"Q1\":\"2\",\"Q2\":\"1\",\"Q3\":\"1\",\"Q4\":\"5\",\"Q5\":\"0\"}","rt":23598},{"participantID":"1q7s1n83absxbw9ou0q8ah780qdwp8hs","judgmentIndices":[3,5,2,0,1,4],"questionScores":[14,24059,24046,24045,22,27,24037,24061,27,30],"questionIndices":[9,17,11,2,22,45,25,31,29,10],"responseType":"finish","internal_node_id":"0.0-4.0-3.0","time_elapsed":273970,"trial_index":11,"trial_type":"survey-likert","responses":"{\"Q0\":\"1\",\"Q1\":\"2\",\"Q2\":\"1\",\"Q3\":\"1\",\"Q4\":\"2\",\"Q5\":\"0\"}","rt":17378}],"__v":0}
{"_id":{"$oid":"5cabc95fd7177b00043d8507"},"data":[{"participantID":"06fkz1288o4u1gb07tdmme5hxkqyujzo","judgmentIndices":[3,1,4,2,5,0],"questionScores":[24048,16,21,24070,24067,14,24067,46,29,24047],"questionIndices":[40,44,20,29,5,43,2,6,38,9],"responseType":"finish","internal_node_id":"0.0-0.0","time_elapsed":6698,"trial_index":0,"trial_type":"survey-multi-choice","responses":"{\"Q0\":\"I consent to participate\"}","rt":6684},{"participantID":"06fkz1288o4u1gb07tdmme5hxkqyujzo","judgmentIndices":[3,1,4,2,5,0],"questionScores":[24048,16,21,24070,24067,14,24067,46,29,24047],"questionIndices":[40,44,20,29,5,43,2,6,38,9],"responseType":"finish","internal_node_id":"0.0-1.0","time_elapsed":11280,"trial_index":1,"trial_type":"instructions","rt":3580,"view_history":"[{\"page_index\":0,\"viewing_time\":3580}]"},{"participantID":"06fkz1288o4u1gb07tdmme5hxkqyujzo","judgmentIndices":[3,1,4,2,5,0],"questionScores":[24048,16,21,24070,24067,14,24067,46,29,24047],"questionIndices":[40,44,20,29,5,43,2,6,38,9],"responseType":"finish","internal_node_id":"0.0-2.0-0.0","time_elapsed":31402,"trial_index":2,"trial_type":"survey-likert","responses":"{\"Q0\":\"5\",\"Q1\":\"2\",\"Q2\":\"1\",\"Q3\":\"4\",\"Q4\":\"4\",\"Q5\":\"5\"}","rt":19116},{"participantID":"06fkz1288o4u1gb07tdmme5hxkqyujzo","judgmentIndices":[3,1,4,2,5,0],"questionScores":[24048,16,21,24070,24067,14,24067,46,29,24047],"questionIndices":[40,44,20,29,5,43,2,6,38,9],"responseType":"finish","internal_node_id":"0.0-2.0-1.0","time_elapsed":45969,"trial_index":3,"trial_type":"survey-likert","responses":"{\"Q0\":\"1\",\"Q1\":\"2\",\"Q2\":\"5\",\"Q3\":\"5\",\"Q4\":\"4\",\"Q5\":\"5\"}","rt":13562},{"participantID":"06fkz1288o4u1gb07tdmme5hxkqyujzo","judgmentIndices":[3,1,4,2,5,0],"questionScores":[24048,16,21,24070,24067,14,24067,46,29,24047],"questionIndices":[40,44,20,29,5,43,2,6,38,9],"responseType":"finish","internal_node_id":"0.0-2.0-2.0","time_elapsed":59666,"trial_index":4,"trial_type":"survey-likert","responses":"{\"Q0\":\"1\",\"Q1\":\"4\",\"Q2\":\"2\",\"Q3\":\"3\",\"Q4\":\"3\",\"Q5\":\"4\"}","rt":12693},{"participantID":"06fkz1288o4u1gb07tdmme5hxkqyujzo","judgmentIndices":[3,1,4,2,5,0],"questionScores":[24048,16,21,24070,24067,14,24067,46,29,24047],"questionIndices":[40,44,20,29,5,43,2,6,38,9],"responseType":"finish","internal_node_id":"0.0-2.0-3.0","time_elapsed":73673,"trial_index":5,"trial_type":"survey-likert","responses":"{\"Q0\":\"6\",\"Q1\":\"5\",\"Q2\":\"6\",\"Q3\":\"2\",\"Q4\":\"3\",\"Q5\":\"1\"}","rt":13003},{"participantID":"06fkz1288o4u1gb07tdmme5hxkqyujzo","judgmentIndices":[3,1,4,2,5,0],"questionScores":[24048,16,21,24070,24067,14,24067,46,29,24047],"questionIndices":[40,44,20,29,5,43,2,6,38,9],"responseType":"finish","internal_node_id":"0.0-2.0-4.0","time_elapsed":136672,"trial_index":6,"trial_type":"survey-likert","responses":"{\"Q0\":\"5\",\"Q1\":\"5\",\"Q2\":\"6\",\"Q3\":\"1\",\"Q4\":\"1\",\"Q5\":\"1\"}","rt":61993},{"participantID":"06fkz1288o4u1gb07tdmme5hxkqyujzo","judgmentIndices":[3,1,4,2,5,0],"questionScores":[24048,16,21,24070,24067,14,24067,46,29,24047],"questionIndices":[40,44,20,29,5,43,2,6,38,9],"responseType":"finish","internal_node_id":"0.0-3.0","time_elapsed":180249,"trial_index":7,"trial_type":"survey-likert","responses":"{\"Q0\":\"1\",\"Q1\":\"3\",\"Q2\":\"5\",\"Q3\":\"5\",\"Q4\":\"4\",\"Q5\":\"5\",\"Q6\":\"6\"}","rt":42571},{"participantID":"06fkz1288o4u1gb07tdmme5hxkqyujzo","judgmentIndices":[3,1,4,2,5,0],"questionScores":[24048,16,21,24070,24067,14,24067,46,29,24047],"questionIndices":[40,44,20,29,5,43,2,6,38,9],"responseType":"finish","internal_node_id":"0.0-4.0-0.0","time_elapsed":205393,"trial_index":8,"trial_type":"survey-likert","responses":"{\"Q0\":\"5\",\"Q1\":\"6\",\"Q2\":\"2\",\"Q3\":\"4\",\"Q4\":\"5\",\"Q5\":\"6\"}","rt":24138},{"participantID":"06fkz1288o4u1gb07tdmme5hxkqyujzo","judgmentIndices":[3,1,4,2,5,0],"questionScores":[24048,16,21,24070,24067,14,24067,46,29,24047],"questionIndices":[40,44,20,29,5,43,2,6,38,9],"responseType":"finish","internal_node_id":"0.0-4.0-1.0","time_elapsed":247737,"trial_index":9,"trial_type":"survey-likert","responses":"{\"Q0\":\"1\",\"Q1\":\"3\",\"Q2\":\"2\",\"Q3\":\"4\",\"Q4\":\"1\",\"Q5\":\"4\"}","rt":41339},{"participantID":"06fkz1288o4u1gb07tdmme5hxkqyujzo","judgmentIndices":[3,1,4,2,5,0],"questionScores":[24048,16,21,24070,24067,14,24067,46,29,24047],"questionIndices":[40,44,20,29,5,43,2,6,38,9],"responseType":"finish","internal_node_id":"0.0-4.0-2.0","time_elapsed":302218,"trial_index":10,"trial_type":"survey-likert","responses":"{\"Q0\":\"1\",\"Q1\":\"1\",\"Q2\":\"1\",\"Q3\":\"1\",\"Q4\":\"1\",\"Q5\":\"1\"}","rt":53476},{"participantID":"06fkz1288o4u1gb07tdmme5hxkqyujzo","judgmentIndices":[3,1,4,2,5,0],"questionScores":[24048,16,21,24070,24067,14,24067,46,29,24047],"questionIndices":[40,44,20,29,5,43,2,6,38,9],"responseType":"finish","internal_node_id":"0.0-4.0-3.0","time_elapsed":397129,"trial_index":11,"trial_type":"survey-likert","responses":"{\"Q0\":\"6\",\"Q1\":\"5\",\"Q2\":\"6\",\"Q3\":\"0\",\"Q4\":\"1\",\"Q5\":\"0\"}","rt":93907}],"__v":0}
{"_id":{"$oid":"5cabc97cd7177b00043d8508"},"data":[{"participantID":"en73yyfcxsjd00vfbjw58kcgbrjkp3h4","judgmentIndices":[2,0,5,1,3,4],"questionScores":[14,24052,17,17,24056,20,24052,24056,24052,32],"questionIndices":[11,28,7,17,29,5,41,27,25,10],"responseType":"finish","internal_node_id":"0.0-0.0","time_elapsed":10796,"trial_index":0,"trial_type":"survey-multi-choice","responses":"{\"Q0\":\"I consent to participate\"}","rt":10786},{"participantID":"en73yyfcxsjd00vfbjw58kcgbrjkp3h4","judgmentIndices":[2,0,5,1,3,4],"questionScores":[14,24052,17,17,24056,20,24052,24056,24052,32],"questionIndices":[11,28,7,17,29,5,41,27,25,10],"responseType":"finish","internal_node_id":"0.0-1.0","time_elapsed":25859,"trial_index":1,"trial_type":"instructions","rt":14060,"view_history":"[{\"page_index\":0,\"viewing_time\":14059}]"},{"participantID":"en73yyfcxsjd00vfbjw58kcgbrjkp3h4","judgmentIndices":[2,0,5,1,3,4],"questionScores":[14,24052,17,17,24056,20,24052,24056,24052,32],"questionIndices":[11,28,7,17,29,5,41,27,25,10],"responseType":"finish","internal_node_id":"0.0-2.0-0.0","time_elapsed":37907,"trial_index":2,"trial_type":"survey-likert","responses":"{\"Q0\":\"2\",\"Q1\":\"3\",\"Q2\":\"3\",\"Q3\":\"4\",\"Q4\":\"3\",\"Q5\":\"2\"}","rt":11040},{"participantID":"en73yyfcxsjd00vfbjw58kcgbrjkp3h4","judgmentIndices":[2,0,5,1,3,4],"questionScores":[14,24052,17,17,24056,20,24052,24056,24052,32],"questionIndices":[11,28,7,17,29,5,41,27,25,10],"responseType":"finish","internal_node_id":"0.0-2.0-1.0","time_elapsed":47017,"trial_index":3,"trial_type":"survey-likert","responses":"{\"Q0\":\"2\",\"Q1\":\"4\",\"Q2\":\"3\",\"Q3\":\"2\",\"Q4\":\"1\",\"Q5\":\"4\"}","rt":8105},{"participantID":"en73yyfcxsjd00vfbjw58kcgbrjkp3h4","judgmentIndices":[2,0,5,1,3,4],"questionScores":[14,24052,17,17,24056,20,24052,24056,24052,32],"questionIndices":[11,28,7,17,29,5,41,27,25,10],"responseType":"finish","internal_node_id":"0.0-2.0-2.0","time_elapsed":65953,"trial_index":4,"trial_type":"survey-likert","responses":"{\"Q0\":\"4\",\"Q1\":\"2\",\"Q2\":\"4\",\"Q3\":\"3\",\"Q4\":\"1\",\"Q5\":\"3\"}","rt":17930},{"participantID":"en73yyfcxsjd00vfbjw58kcgbrjkp3h4","judgmentIndices":[2,0,5,1,3,4],"questionScores":[14,24052,17,17,24056,20,24052,24056,24052,32],"questionIndices":[11,28,7,17,29,5,41,27,25,10],"responseType":"finish","internal_node_id":"0.0-2.0-3.0","time_elapsed":73545,"trial_index":5,"trial_type":"survey-likert","responses":"{\"Q0\":\"2\",\"Q1\":\"2\",\"Q2\":\"5\",\"Q3\":\"4\",\"Q4\":\"2\",\"Q5\":\"5\"}","rt":6587},{"participantID":"en73yyfcxsjd00vfbjw58kcgbrjkp3h4","judgmentIndices":[2,0,5,1,3,4],"questionScores":[14,24052,17,17,24056,20,24052,24056,24052,32],"questionIndices":[11,28,7,17,29,5,41,27,25,10],"responseType":"finish","internal_node_id":"0.0-2.0-4.0","time_elapsed":85317,"trial_index":6,"trial_type":"survey-likert","responses":"{\"Q0\":\"2\",\"Q1\":\"1\",\"Q2\":\"5\",\"Q3\":\"4\",\"Q4\":\"4\",\"Q5\":\"3\"}","rt":10766},{"participantID":"en73yyfcxsjd00vfbjw58kcgbrjkp3h4","judgmentIndices":[2,0,5,1,3,4],"questionScores":[14,24052,17,17,24056,20,24052,24056,24052,32],"questionIndices":[11,28,7,17,29,5,41,27,25,10],"responseType":"finish","internal_node_id":"0.0-3.0","time_elapsed":92648,"trial_index":7,"trial_type":"survey-likert","responses":"{\"Q0\":\"2\",\"Q1\":\"3\",\"Q2\":\"2\",\"Q3\":\"5\",\"Q4\":\"4\",\"Q5\":\"3\",\"Q6\":\"4\"}","rt":6323},{"participantID":"en73yyfcxsjd00vfbjw58kcgbrjkp3h4","judgmentIndices":[2,0,5,1,3,4],"questionScores":[14,24052,17,17,24056,20,24052,24056,24052,32],"questionIndices":[11,28,7,17,29,5,41,27,25,10],"responseType":"finish","internal_node_id":"0.0-4.0-0.0","time_elapsed":103464,"trial_index":8,"trial_type":"survey-likert","responses":"{\"Q0\":\"2\",\"Q1\":\"4\",\"Q2\":\"3\",\"Q3\":\"2\",\"Q4\":\"3\",\"Q5\":\"4\"}","rt":9811},{"participantID":"en73yyfcxsjd00vfbjw58kcgbrjkp3h4","judgmentIndices":[2,0,5,1,3,4],"questionScores":[14,24052,17,17,24056,20,24052,24056,24052,32],"questionIndices":[11,28,7,17,29,5,41,27,25,10],"responseType":"finish","internal_node_id":"0.0-4.0-1.0","time_elapsed":116977,"trial_index":9,"trial_type":"survey-likert","responses":"{\"Q0\":\"2\",\"Q1\":\"4\",\"Q2\":\"5\",\"Q3\":\"4\",\"Q4\":\"3\",\"Q5\":\"3\"}","rt":12508},{"participantID":"en73yyfcxsjd00vfbjw58kcgbrjkp3h4","judgmentIndices":[2,0,5,1,3,4],"questionScores":[14,24052,17,17,24056,20,24052,24056,24052,32],"questionIndices":[11,28,7,17,29,5,41,27,25,10],"responseType":"finish","internal_node_id":"0.0-4.0-2.0","time_elapsed":124838,"trial_index":10,"trial_type":"survey-likert","responses":"{\"Q0\":\"3\",\"Q1\":\"5\",\"Q2\":\"3\",\"Q3\":\"4\",\"Q4\":\"3\",\"Q5\":\"1\"}","rt":6855},{"participantID":"en73yyfcxsjd00vfbjw58kcgbrjkp3h4","judgmentIndices":[2,0,5,1,3,4],"questionScores":[14,24052,17,17,24056,20,24052,24056,24052,32],"questionIndices":[11,28,7,17,29,5,41,27,25,10],"responseType":"finish","internal_node_id":"0.0-4.0-3.0","time_elapsed":131644,"trial_index":11,"trial_type":"survey-likert","responses":"{\"Q0\":\"2\",\"Q1\":\"3\",\"Q2\":\"4\",\"Q3\":\"2\",\"Q4\":\"2\",\"Q5\":\"3\"}","rt":5800}],"__v":0}
{"_id":{"$oid":"5cabc9a1d7177b00043d8509"},"data":[{"participantID":"ghdg871dtm4jkw2edf4ksx2b3k9m0ra1","judgmentIndices":[5,1,2,4,0,3],"questionScores":[24051,22,24034,12,24048,7,24065,27,36,24043],"questionIndices":[18,12,22,5,24,36,46,9,38,23],"responseType":"finish","internal_node_id":"0.0-0.0","time_elapsed":8073,"trial_index":0,"trial_type":"survey-multi-choice","responses":"{\"Q0\":\"I consent to participate\"}","rt":8064},{"participantID":"ghdg871dtm4jkw2edf4ksx2b3k9m0ra1","judgmentIndices":[5,1,2,4,0,3],"questionScores":[24051,22,24034,12,24048,7,24065,27,36,24043],"questionIndices":[18,12,22,5,24,36,46,9,38,23],"responseType":"finish","internal_node_id":"0.0-1.0","time_elapsed":23893,"trial_index":1,"trial_type":"instructions","rt":14818,"view_history":"[{\"page_index\":0,\"viewing_time\":14817}]"},{"participantID":"ghdg871dtm4jkw2edf4ksx2b3k9m0ra1","judgmentIndices":[5,1,2,4,0,3],"questionScores":[24051,22,24034,12,24048,7,24065,27,36,24043],"questionIndices":[18,12,22,5,24,36,46,9,38,23],"responseType":"finish","internal_node_id":"0.0-2.0-0.0","time_elapsed":58255,"trial_index":2,"trial_type":"survey-likert","responses":"{\"Q0\":\"4\",\"Q1\":\"0\",\"Q2\":\"4\",\"Q3\":\"3\",\"Q4\":\"5\",\"Q5\":\"5\"}","rt":33355},{"participantID":"ghdg871dtm4jkw2edf4ksx2b3k9m0ra1","judgmentIndices":[5,1,2,4,0,3],"questionScores":[24051,22,24034,12,24048,7,24065,27,36,24043],"questionIndices":[18,12,22,5,24,36,46,9,38,23],"responseType":"finish","internal_node_id":"0.0-2.0-1.0","time_elapsed":83215,"trial_index":3,"trial_type":"survey-likert","responses":"{\"Q0\":\"4\",\"Q1\":\"0\",\"Q2\":\"5\",\"Q3\":\"5\",\"Q4\":\"5\",\"Q5\":\"0\"}","rt":23955},{"participantID":"ghdg871dtm4jkw2edf4ksx2b3k9m0ra1","judgmentIndices":[5,1,2,4,0,3],"questionScores":[24051,22,24034,12,24048,7,24065,27,36,24043],"questionIndices":[18,12,22,5,24,36,46,9,38,23],"responseType":"finish","internal_node_id":"0.0-2.0-2.0","time_elapsed":112091,"trial_index":4,"trial_type":"survey-likert","responses":"{\"Q0\":\"2\",\"Q1\":\"1\",\"Q2\":\"2\",\"Q3\":\"2\",\"Q4\":\"4\",\"Q5\":\"5\"}","rt":27872},{"participantID":"ghdg871dtm4jkw2edf4ksx2b3k9m0ra1","judgmentIndices":[5,1,2,4,0,3],"questionScores":[24051,22,24034,12,24048,7,24065,27,36,24043],"questionIndices":[18,12,22,5,24,36,46,9,38,23],"responseType":"finish","internal_node_id":"0.0-2.0-3.0","time_elapsed":140179,"trial_index":5,"trial_type":"survey-likert","responses":"{\"Q0\":\"3\",\"Q1\":\"0\",\"Q2\":\"1\",\"Q3\":\"3\",\"Q4\":\"3\",\"Q5\":\"0\"}","rt":27083},{"participantID":"ghdg871dtm4jkw2edf4ksx2b3k9m0ra1","judgmentIndices":[5,1,2,4,0,3],"questionScores":[24051,22,24034,12,24048,7,24065,27,36,24043],"questionIndices":[18,12,22,5,24,36,46,9,38,23],"responseType":"finish","internal_node_id":"0.0-2.0-4.0","time_elapsed":169435,"trial_index":6,"trial_type":"survey-likert","responses":"{\"Q0\":\"1\",\"Q1\":\"1\",\"Q2\":\"1\",\"Q3\":\"2\",\"Q4\":\"3\",\"Q5\":\"5\"}","rt":28251},{"participantID":"ghdg871dtm4jkw2edf4ksx2b3k9m0ra1","judgmentIndices":[5,1,2,4,0,3],"questionScores":[24051,22,24034,12,24048,7,24065,27,36,24043],"questionIndices":[18,12,22,5,24,36,46,9,38,23],"responseType":"finish","internal_node_id":"0.0-3.0","time_elapsed":203481,"trial_index":7,"trial_type":"survey-likert","responses":"{\"Q0\":\"1\",\"Q1\":\"3\",\"Q2\":\"1\",\"Q3\":\"1\",\"Q4\":\"3\",\"Q5\":\"0\",\"Q6\":\"6\"}","rt":33041},{"participantID":"ghdg871dtm4jkw2edf4ksx2b3k9m0ra1","judgmentIndices":[5,1,2,4,0,3],"questionScores":[24051,22,24034,12,24048,7,24065,27,36,24043],"questionIndices":[18,12,22,5,24,36,46,9,38,23],"responseType":"finish","internal_node_id":"0.0-4.0-0.0","time_elapsed":232891,"trial_index":8,"trial_type":"survey-likert","responses":"{\"Q0\":\"3\",\"Q1\":\"2\",\"Q2\":\"1\",\"Q3\":\"4\",\"Q4\":\"4\",\"Q5\":\"6\"}","rt":28406},{"participantID":"ghdg871dtm4jkw2edf4ksx2b3k9m0ra1","judgmentIndices":[5,1,2,4,0,3],"questionScores":[24051,22,24034,12,24048,7,24065,27,36,24043],"questionIndices":[18,12,22,5,24,36,46,9,38,23],"responseType":"finish","internal_node_id":"0.0-4.0-1.0","time_elapsed":258001,"trial_index":9,"trial_type":"survey-likert","responses":"{\"Q0\":\"1\",\"Q1\":\"0\",\"Q2\":\"0\",\"Q3\":\"1\",\"Q4\":\"1\",\"Q5\":\"0\"}","rt":24105},{"participantID":"ghdg871dtm4jkw2edf4ksx2b3k9m0ra1","judgmentIndices":[5,1,2,4,0,3],"questionScores":[24051,22,24034,12,24048,7,24065,27,36,24043],"questionIndices":[18,12,22,5,24,36,46,9,38,23],"responseType":"finish","internal_node_id":"0.0-4.0-2.0","time_elapsed":291219,"trial_index":10,"trial_type":"survey-likert","responses":"{\"Q0\":\"3\",\"Q1\":\"2\",\"Q2\":\"2\",\"Q3\":\"1\",\"Q4\":\"1\",\"Q5\":\"1\"}","rt":32214},{"participantID":"ghdg871dtm4jkw2edf4ksx2b3k9m0ra1","judgmentIndices":[5,1,2,4,0,3],"questionScores":[24051,22,24034,12,24048,7,24065,27,36,24043],"questionIndices":[18,12,22,5,24,36,46,9,38,23],"responseType":"finish","internal_node_id":"0.0-4.0-3.0","time_elapsed":324928,"trial_index":11,"trial_type":"survey-likert","responses":"{\"Q0\":\"2\",\"Q1\":\"2\",\"Q2\":\"0\",\"Q3\":\"4\",\"Q4\":\"4\",\"Q5\":\"6\"}","rt":32705}],"__v":0}
{"_id":{"$oid":"5cabc9c6d7177b00043d850a"},"data":[{"participantID":"4gn0muas8y9vawuq9wdozhl2acwou659","judgmentIndices":[5,4,0,3,2,1],"questionScores":[24062,24047,31,37,24052,33,24059,23,45,24052],"questionIndices":[4,13,31,47,32,28,11,29,40,8],"responseType":"finish","internal_node_id":"0.0-0.0","time_elapsed":14711,"trial_index":0,"trial_type":"survey-multi-choice","responses":"{\"Q0\":\"I consent to participate\"}","rt":14705},{"participantID":"4gn0muas8y9vawuq9wdozhl2acwou659","judgmentIndices":[5,4,0,3,2,1],"questionScores":[24062,24047,31,37,24052,33,24059,23,45,24052],"questionIndices":[4,13,31,47,32,28,11,29,40,8],"responseType":"finish","internal_node_id":"0.0-1.0","time_elapsed":20374,"trial_index":1,"trial_type":"instructions","rt":4661,"view_history":"[{\"page_index\":0,\"viewing_time\":4660}]"},{"participantID":"4gn0muas8y9vawuq9wdozhl2acwou659","judgmentIndices":[5,4,0,3,2,1],"questionScores":[24062,24047,31,37,24052,33,24059,23,45,24052],"questionIndices":[4,13,31,47,32,28,11,29,40,8],"responseType":"finish","internal_node_id":"0.0-2.0-0.0","time_elapsed":45527,"trial_index":2,"trial_type":"survey-likert","responses":"{\"Q0\":\"2\",\"Q1\":\"2\",\"Q2\":\"2\",\"Q3\":\"2\",\"Q4\":\"2\",\"Q5\":\"3\"}","rt":24149},{"participantID":"4gn0muas8y9vawuq9wdozhl2acwou659","judgmentIndices":[5,4,0,3,2,1],"questionScores":[24062,24047,31,37,24052,33,24059,23,45,24052],"questionIndices":[4,13,31,47,32,28,11,29,40,8],"responseType":"finish","internal_node_id":"0.0-2.0-1.0","time_elapsed":70199,"trial_index":3,"trial_type":"survey-likert","responses":"{\"Q0\":\"3\",\"Q1\":\"3\",\"Q2\":\"4\",\"Q3\":\"3\",\"Q4\":\"3\",\"Q5\":\"2\"}","rt":23667},{"participantID":"4gn0muas8y9vawuq9wdozhl2acwou659","judgmentIndices":[5,4,0,3,2,1],"questionScores":[24062,24047,31,37,24052,33,24059,23,45,24052],"questionIndices":[4,13,31,47,32,28,11,29,40,8],"responseType":"finish","internal_node_id":"0.0-2.0-2.0","time_elapsed":97399,"trial_index":4,"trial_type":"survey-likert","responses":"{\"Q0\":\"2\",\"Q1\":\"2\",\"Q2\":\"2\",\"Q3\":\"2\",\"Q4\":\"2\",\"Q5\":\"2\"}","rt":26196},{"participantID":"4gn0muas8y9vawuq9wdozhl2acwou659","judgmentIndices":[5,4,0,3,2,1],"questionScores":[24062,24047,31,37,24052,33,24059,23,45,24052],"questionIndices":[4,13,31,47,32,28,11,29,40,8],"responseType":"finish","internal_node_id":"0.0-2.0-3.0","time_elapsed":144270,"trial_index":5,"trial_type":"survey-likert","responses":"{\"Q0\":\"3\",\"Q1\":\"3\",\"Q2\":\"2\",\"Q3\":\"3\",\"Q4\":\"3\",\"Q5\":\"2\"}","rt":45862},{"participantID":"4gn0muas8y9vawuq9wdozhl2acwou659","judgmentIndices":[5,4,0,3,2,1],"questionScores":[24062,24047,31,37,24052,33,24059,23,45,24052],"questionIndices":[4,13,31,47,32,28,11,29,40,8],"responseType":"finish","internal_node_id":"0.0-2.0-4.0","time_elapsed":170662,"trial_index":6,"trial_type":"survey-likert","responses":"{\"Q0\":\"4\",\"Q1\":\"3\",\"Q2\":\"4\",\"Q3\":\"3\",\"Q4\":\"4\",\"Q5\":\"1\"}","rt":25388},{"participantID":"4gn0muas8y9vawuq9wdozhl2acwou659","judgmentIndices":[5,4,0,3,2,1],"questionScores":[24062,24047,31,37,24052,33,24059,23,45,24052],"questionIndices":[4,13,31,47,32,28,11,29,40,8],"responseType":"finish","internal_node_id":"0.0-3.0","time_elapsed":208413,"trial_index":7,"trial_type":"survey-likert","responses":"{\"Q0\":\"2\",\"Q1\":\"2\",\"Q2\":\"2\",\"Q3\":\"2\",\"Q4\":\"2\",\"Q5\":\"5\",\"Q6\":\"6\"}","rt":36749},{"participantID":"4gn0muas8y9vawuq9wdozhl2acwou659","judgmentIndices":[5,4,0,3,2,1],"questionScores":[24062,24047,31,37,24052,33,24059,23,45,24052],"questionIndices":[4,13,31,47,32,28,11,29,40,8],"responseType":"finish","internal_node_id":"0.0-4.0-0.0","time_elapsed":233246,"trial_index":8,"trial_type":"survey-likert","responses":"{\"Q0\":\"2\",\"Q1\":\"2\",\"Q2\":\"2\",\"Q3\":\"2\",\"Q4\":\"2\",\"Q5\":\"3\"}","rt":23830},{"participantID":"4gn0muas8y9vawuq9wdozhl2acwou659","judgmentIndices":[5,4,0,3,2,1],"questionScores":[24062,24047,31,37,24052,33,24059,23,45,24052],"questionIndices":[4,13,31,47,32,28,11,29,40,8],"responseType":"finish","internal_node_id":"0.0-4.0-1.0","time_elapsed":278646,"trial_index":9,"trial_type":"survey-likert","responses":"{\"Q0\":\"2\",\"Q1\":\"2\",\"Q2\":\"3\",\"Q3\":\"2\",\"Q4\":\"2\",\"Q5\":\"3\"}","rt":44397},{"participantID":"4gn0muas8y9vawuq9wdozhl2acwou659","judgmentIndices":[5,4,0,3,2,1],"questionScores":[24062,24047,31,37,24052,33,24059,23,45,24052],"questionIndices":[4,13,31,47,32,28,11,29,40,8],"responseType":"finish","internal_node_id":"0.0-4.0-2.0","time_elapsed":299390,"trial_index":10,"trial_type":"survey-likert","responses":"{\"Q0\":\"4\",\"Q1\":\"2\",\"Q2\":\"4\",\"Q3\":\"4\",\"Q4\":\"2\",\"Q5\":\"1\"}","rt":19739},{"participantID":"4gn0muas8y9vawuq9wdozhl2acwou659","judgmentIndices":[5,4,0,3,2,1],"questionScores":[24062,24047,31,37,24052,33,24059,23,45,24052],"questionIndices":[4,13,31,47,32,28,11,29,40,8],"responseType":"finish","internal_node_id":"0.0-4.0-3.0","time_elapsed":320694,"trial_index":11,"trial_type":"survey-likert","responses":"{\"Q0\":\"2\",\"Q1\":\"2\",\"Q2\":\"2\",\"Q3\":\"2\",\"Q4\":\"2\",\"Q5\":\"1\"}","rt":20300}],"__v":0}
{"_id":{"$oid":"5cabcac3d7177b00043d850b"},"data":[{"participantID":"j0whxmsl16kx7rv3ygkdx7lm6mdojhcr","judgmentIndices":[2,4,1,3,5,0],"questionScores":[24057,24058,24042,21,24,16,17,24056,24066,26],"questionIndices":[27,16,25,13,5,43,20,17,1,18],"responseType":"finish","internal_node_id":"0.0-0.0","time_elapsed":2747,"trial_index":0,"trial_type":"survey-multi-choice","responses":"{\"Q0\":\"I consent to participate\"}","rt":2739},{"participantID":"j0whxmsl16kx7rv3ygkdx7lm6mdojhcr","judgmentIndices":[2,4,1,3,5,0],"questionScores":[24057,24058,24042,21,24,16,17,24056,24066,26],"questionIndices":[27,16,25,13,5,43,20,17,1,18],"responseType":"finish","internal_node_id":"0.0-1.0","time_elapsed":12759,"trial_index":1,"trial_type":"instructions","rt":9011,"view_history":"[{\"page_index\":0,\"viewing_time\":9010}]"},{"participantID":"j0whxmsl16kx7rv3ygkdx7lm6mdojhcr","judgmentIndices":[2,4,1,3,5,0],"questionScores":[24057,24058,24042,21,24,16,17,24056,24066,26],"questionIndices":[27,16,25,13,5,43,20,17,1,18],"responseType":"finish","internal_node_id":"0.0-2.0-0.0","time_elapsed":33602,"trial_index":2,"trial_type":"survey-likert","responses":"{\"Q0\":\"5\",\"Q1\":\"1\",\"Q2\":\"5\",\"Q3\":\"6\",\"Q4\":\"4\",\"Q5\":\"5\"}","rt":19838},{"participantID":"j0whxmsl16kx7rv3ygkdx7lm6mdojhcr","judgmentIndices":[2,4,1,3,5,0],"questionScores":[24057,24058,24042,21,24,16,17,24056,24066,26],"questionIndices":[27,16,25,13,5,43,20,17,1,18],"responseType":"finish","internal_node_id":"0.0-2.0-1.0","time_elapsed":48623,"trial_index":3,"trial_type":"survey-likert","responses":"{\"Q0\":\"1\",\"Q1\":\"6\",\"Q2\":\"3\",\"Q3\":\"2\",\"Q4\":\"1\",\"Q5\":\"1\"}","rt":14015},{"participantID":"j0whxmsl16kx7rv3ygkdx7lm6mdojhcr","judgmentIndices":[2,4,1,3,5,0],"questionScores":[24057,24058,24042,21,24,16,17,24056,24066,26],"questionIndices":[27,16,25,13,5,43,20,17,1,18],"responseType":"finish","internal_node_id":"0.0-2.0-2.0","time_elapsed":75780,"trial_index":4,"trial_type":"survey-likert","responses":"{\"Q0\":\"1\",\"Q1\":\"5\",\"Q2\":\"4\",\"Q3\":\"5\",\"Q4\":\"3\",\"Q5\":\"4\"}","rt":26151},{"participantID":"j0whxmsl16kx7rv3ygkdx7lm6mdojhcr","judgmentIndices":[2,4,1,3,5,0],"questionScores":[24057,24058,24042,21,24,16,17,24056,24066,26],"questionIndices":[27,16,25,13,5,43,20,17,1,18],"responseType":"finish","internal_node_id":"0.0-2.0-3.0","time_elapsed":96110,"trial_index":5,"trial_type":"survey-likert","responses":"{\"Q0\":\"1\",\"Q1\":\"5\",\"Q2\":\"4\",\"Q3\":\"1\",\"Q4\":\"1\",\"Q5\":\"4\"}","rt":19325},{"participantID":"j0whxmsl16kx7rv3ygkdx7lm6mdojhcr","judgmentIndices":[2,4,1,3,5,0],"questionScores":[24057,24058,24042,21,24,16,17,24056,24066,26],"questionIndices":[27,16,25,13,5,43,20,17,1,18],"responseType":"finish","internal_node_id":"0.0-2.0-4.0","time_elapsed":116984,"trial_index":6,"trial_type":"survey-likert","responses":"{\"Q0\":\"3\",\"Q1\":\"2\",\"Q2\":\"5\",\"Q3\":\"2\",\"Q4\":\"2\",\"Q5\":\"4\"}","rt":19870},{"participantID":"j0whxmsl16kx7rv3ygkdx7lm6mdojhcr","judgmentIndices":[2,4,1,3,5,0],"questionScores":[24057,24058,24042,21,24,16,17,24056,24066,26],"questionIndices":[27,16,25,13,5,43,20,17,1,18],"responseType":"finish","internal_node_id":"0.0-3.0","time_elapsed":139526,"trial_index":7,"trial_type":"survey-likert","responses":"{\"Q0\":\"5\",\"Q1\":\"6\",\"Q2\":\"1\",\"Q3\":\"1\",\"Q4\":\"5\",\"Q5\":\"6\",\"Q6\":\"6\"}","rt":21537},{"participantID":"j0whxmsl16kx7rv3ygkdx7lm6mdojhcr","judgmentIndices":[2,4,1,3,5,0],"questionScores":[24057,24058,24042,21,24,16,17,24056,24066,26],"questionIndices":[27,16,25,13,5,43,20,17,1,18],"responseType":"finish","internal_node_id":"0.0-4.0-0.0","time_elapsed":160733,"trial_index":8,"trial_type":"survey-likert","responses":"{\"Q0\":\"4\",\"Q1\":\"5\",\"Q2\":\"2\",\"Q3\":\"3\",\"Q4\":\"4\",\"Q5\":\"5\"}","rt":20203},{"participantID":"j0whxmsl16kx7rv3ygkdx7lm6mdojhcr","judgmentIndices":[2,4,1,3,5,0],"questionScores":[24057,24058,24042,21,24,16,17,24056,24066,26],"questionIndices":[27,16,25,13,5,43,20,17,1,18],"responseType":"finish","internal_node_id":"0.0-4.0-1.0","time_elapsed":174125,"trial_index":9,"trial_type":"survey-likert","responses":"{\"Q0\":\"5\",\"Q1\":\"1\",\"Q2\":\"4\",\"Q3\":\"5\",\"Q4\":\"4\",\"Q5\":\"5\"}","rt":12387},{"participantID":"j0whxmsl16kx7rv3ygkdx7lm6mdojhcr","judgmentIndices":[2,4,1,3,5,0],"questionScores":[24057,24058,24042,21,24,16,17,24056,24066,26],"questionIndices":[27,16,25,13,5,43,20,17,1,18],"responseType":"finish","internal_node_id":"0.0-4.0-2.0","time_elapsed":214095,"trial_index":10,"trial_type":"survey-likert","responses":"{\"Q0\":\"4\",\"Q1\":\"3\",\"Q2\":\"5\",\"Q3\":\"3\",\"Q4\":\"5\",\"Q5\":\"6\"}","rt":38963},{"participantID":"j0whxmsl16kx7rv3ygkdx7lm6mdojhcr","judgmentIndices":[2,4,1,3,5,0],"questionScores":[24057,24058,24042,21,24,16,17,24056,24066,26],"questionIndices":[27,16,25,13,5,43,20,17,1,18],"responseType":"finish","internal_node_id":"0.0-4.0-3.0","time_elapsed":228624,"trial_index":11,"trial_type":"survey-likert","responses":"{\"Q0\":\"4\",\"Q1\":\"5\",\"Q2\":\"6\",\"Q3\":\"3\",\"Q4\":\"5\",\"Q5\":\"5\"}","rt":13524}],"__v":0}
{"_id":{"$oid":"5cabcad6d7177b00043d850c"},"data":[{"participantID":"upheeoq3y0ppvnna55337afva7a98t11","judgmentIndices":[1,5,4,0,3,2],"questionScores":[42,30,24061,24048,24035,24055,17,25,24044,13],"questionIndices":[49,15,9,39,19,13,10,7,3,2],"responseType":"finish","internal_node_id":"0.0-0.0","time_elapsed":4140,"trial_index":0,"trial_type":"survey-multi-choice","responses":"{\"Q0\":\"I consent to participate\"}","rt":4132},{"participantID":"upheeoq3y0ppvnna55337afva7a98t11","judgmentIndices":[1,5,4,0,3,2],"questionScores":[42,30,24061,24048,24035,24055,17,25,24044,13],"questionIndices":[49,15,9,39,19,13,10,7,3,2],"responseType":"finish","internal_node_id":"0.0-1.0","time_elapsed":12360,"trial_index":1,"trial_type":"instructions","rt":7213,"view_history":"[{\"page_index\":0,\"viewing_time\":7213}]"},{"participantID":"upheeoq3y0ppvnna55337afva7a98t11","judgmentIndices":[1,5,4,0,3,2],"questionScores":[42,30,24061,24048,24035,24055,17,25,24044,13],"questionIndices":[49,15,9,39,19,13,10,7,3,2],"responseType":"finish","internal_node_id":"0.0-2.0-0.0","time_elapsed":29850,"trial_index":2,"trial_type":"survey-likert","responses":"{\"Q0\":\"0\",\"Q1\":\"0\",\"Q2\":\"0\",\"Q3\":\"0\",\"Q4\":\"0\",\"Q5\":\"0\"}","rt":16477},{"participantID":"upheeoq3y0ppvnna55337afva7a98t11","judgmentIndices":[1,5,4,0,3,2],"questionScores":[42,30,24061,24048,24035,24055,17,25,24044,13],"questionIndices":[49,15,9,39,19,13,10,7,3,2],"responseType":"finish","internal_node_id":"0.0-2.0-1.0","time_elapsed":47949,"trial_index":3,"trial_type":"survey-likert","responses":"{\"Q0\":\"0\",\"Q1\":\"0\",\"Q2\":\"0\",\"Q3\":\"0\",\"Q4\":\"2\",\"Q5\":\"0\"}","rt":17080},{"participantID":"upheeoq3y0ppvnna55337afva7a98t11","judgmentIndices":[1,5,4,0,3,2],"questionScores":[42,30,24061,24048,24035,24055,17,25,24044,13],"questionIndices":[49,15,9,39,19,13,10,7,3,2],"responseType":"finish","internal_node_id":"0.0-2.0-2.0","time_elapsed":62139,"trial_index":4,"trial_type":"survey-likert","responses":"{\"Q0\":\"0\",\"Q1\":\"0\",\"Q2\":\"5\",\"Q3\":\"0\",\"Q4\":\"2\",\"Q5\":\"0\"}","rt":13170},{"participantID":"upheeoq3y0ppvnna55337afva7a98t11","judgmentIndices":[1,5,4,0,3,2],"questionScores":[42,30,24061,24048,24035,24055,17,25,24044,13],"questionIndices":[49,15,9,39,19,13,10,7,3,2],"responseType":"finish","internal_node_id":"0.0-2.0-3.0","time_elapsed":74520,"trial_index":5,"trial_type":"survey-likert","responses":"{\"Q0\":\"0\",\"Q1\":\"0\",\"Q2\":\"0\",\"Q3\":\"0\",\"Q4\":\"5\",\"Q5\":\"0\"}","rt":11370},{"participantID":"upheeoq3y0ppvnna55337afva7a98t11","judgmentIndices":[1,5,4,0,3,2],"questionScores":[42,30,24061,24048,24035,24055,17,25,24044,13],"questionIndices":[49,15,9,39,19,13,10,7,3,2],"responseType":"finish","internal_node_id":"0.0-2.0-4.0","time_elapsed":85320,"trial_index":6,"trial_type":"survey-likert","responses":"{\"Q0\":\"0\",\"Q1\":\"0\",\"Q2\":\"0\",\"Q3\":\"0\",\"Q4\":\"5\",\"Q5\":\"0\"}","rt":9783},{"participantID":"upheeoq3y0ppvnna55337afva7a98t11","judgmentIndices":[1,5,4,0,3,2],"questionScores":[42,30,24061,24048,24035,24055,17,25,24044,13],"questionIndices":[49,15,9,39,19,13,10,7,3,2],"responseType":"finish","internal_node_id":"0.0-3.0","time_elapsed":101438,"trial_index":7,"trial_type":"survey-likert","responses":"{\"Q0\":\"0\",\"Q1\":\"0\",\"Q2\":\"0\",\"Q3\":\"6\",\"Q4\":\"6\",\"Q5\":\"0\",\"Q6\":\"6\"}","rt":15099},{"participantID":"upheeoq3y0ppvnna55337afva7a98t11","judgmentIndices":[1,5,4,0,3,2],"questionScores":[42,30,24061,24048,24035,24055,17,25,24044,13],"questionIndices":[49,15,9,39,19,13,10,7,3,2],"responseType":"finish","internal_node_id":"0.0-4.0-0.0","time_elapsed":118228,"trial_index":8,"trial_type":"survey-likert","responses":"{\"Q0\":\"0\",\"Q1\":\"0\",\"Q2\":\"6\",\"Q3\":\"0\",\"Q4\":\"0\",\"Q5\":\"0\"}","rt":15769},{"participantID":"upheeoq3y0ppvnna55337afva7a98t11","judgmentIndices":[1,5,4,0,3,2],"questionScores":[42,30,24061,24048,24035,24055,17,25,24044,13],"questionIndices":[49,15,9,39,19,13,10,7,3,2],"responseType":"finish","internal_node_id":"0.0-4.0-1.0","time_elapsed":133877,"trial_index":9,"trial_type":"survey-likert","responses":"{\"Q0\":\"0\",\"Q1\":\"0\",\"Q2\":\"4\",\"Q3\":\"0\",\"Q4\":\"0\",\"Q5\":\"0\"}","rt":14629},{"participantID":"upheeoq3y0ppvnna55337afva7a98t11","judgmentIndices":[1,5,4,0,3,2],"questionScores":[42,30,24061,24048,24035,24055,17,25,24044,13],"questionIndices":[49,15,9,39,19,13,10,7,3,2],"responseType":"finish","internal_node_id":"0.0-4.0-2.0","time_elapsed":143378,"trial_index":10,"trial_type":"survey-likert","responses":"{\"Q0\":\"0\",\"Q1\":\"0\",\"Q2\":\"0\",\"Q3\":\"0\",\"Q4\":\"6\",\"Q5\":\"0\"}","rt":8479},{"participantID":"upheeoq3y0ppvnna55337afva7a98t11","judgmentIndices":[1,5,4,0,3,2],"questionScores":[42,30,24061,24048,24035,24055,17,25,24044,13],"questionIndices":[49,15,9,39,19,13,10,7,3,2],"responseType":"finish","internal_node_id":"0.0-4.0-3.0","time_elapsed":152989,"trial_index":11,"trial_type":"survey-likert","responses":"{\"Q0\":\"0\",\"Q1\":\"0\",\"Q2\":\"5\",\"Q3\":\"0\",\"Q4\":\"0\",\"Q5\":\"0\"}","rt":8590}],"__v":0}
